type,condition1,trialNo,stim1,textColor,stimFormat,key,ITI,presTime,thisN,thisTrialN,thisRepN,press.keys,press.corr,press.rt,press.duration,stroop.thisRepN,stroop.thisTrialN,stroop.thisN,stroop.thisIndex,thisRow.t,notes,welcome.started,press_space.started,text_welcome.started,welcome.stopped,press_space.keys,press_space.rt,press_space.duration,trial.started,press.started,text_stroop.started,sound_1.started,dot.started,text_stroop.stopped,trial.stopped,stroop.press.keys,stroop.press.corr,stroop.press.rt,stroop.press.duration,time_fixation,fixation.started,dot_fixation.started,dot_fixation.stopped,fixation.stopped,sound_1.stopped,dot.stopped,thanks.started,thank_you.started,participant,session,date,expName,psychopyVersion,frameRate,expStart,
,,,,,,,,,,,,,,,,,,,,,,0.004796100009116344,0.009099600007175468,0.009099600007175468,24.127904500011937,space,24.10344749999058,None,,,,,,,,,,,,,,,,,,,,,12344,001,2025-03-14_16h33.19.665,pleaseworkstroopcontrol,2024.2.4,59.917984262928364,2025-03-14 16h33.38.145923 -0700,
test,inconsistent,29,green,blue,word,z,800,2000,0,0,0,z,1,0.791101399998297,None,0,0,0,28,24.273739200012642,,,,,,,,,24.26887080000597,24.273739200012642,24.273739200012642,0.14089100000273902,24.338642500006245,24.338642500006245,25.073617000001832,z,1,0.791101399998297,None,3.1569772636081153,25.074196200002916,25.088320200011367,28.25366080000822,28.22169120000035,,,,,12344,001,2025-03-14_16h33.19.665,pleaseworkstroopcontrol,2024.2.4,59.917984262928364,2025-03-14 16h33.38.145923 -0700,
test,inconsistent,14,yellow,blue,word,z,800,2000,1,1,0,z,1,0.6634057000046596,None,0,1,1,13,28.25366080000822,,,,,,,,,28.248512000005576,28.25366080000822,28.25366080000822,0.026753899990580976,28.43711300000723,28.43711300000723,28.92217210000672,z,1,0.6634057000046596,None,5.319107110734817,28.92271010001423,28.937317900010385,34.2651360000018,34.23584400000982,,,,,12344,001,2025-03-14_16h33.19.665,pleaseworkstroopcontrol,2024.2.4,59.917984262928364,2025-03-14 16h33.38.145923 -0700,
test,consistent,12,yellow,yellow,word,m,800,2000,2,2,0,m,1,0.761186900010216,None,0,2,2,11,34.2651360000018,,,,,,,,,34.25996300000406,34.2651360000018,34.2651360000018,0.024256499993498437,34.43522310000844,34.43522310000844,35.03657120000571,m,1,0.761186900010216,None,3.9659881689451884,35.03698110001278,35.05182340000465,39.03620890001184,39.001234400013345,,,,,12344,001,2025-03-14_16h33.19.665,pleaseworkstroopcontrol,2024.2.4,59.917984262928364,2025-03-14 16h33.38.145923 -0700,
test,inconsistent,9,red,blue,word,z,800,2000,3,3,0,z,1,0.7854469000012614,None,0,3,3,8,39.03620890001184,,,,,,,,,39.03171400001156,39.03620890001184,39.03620890001184,0.030525999987730756,39.217057300003944,39.217057300003944,39.835115900001256,z,1,0.7854469000012614,None,2.6385281078471543,39.83563280000817,39.850018800003454,42.49657410000509,42.46668140000838,,,,,12344,001,2025-03-14_16h33.19.665,pleaseworkstroopcontrol,2024.2.4,59.917984262928364,2025-03-14 16h33.38.145923 -0700,
test,inconsistent,52,red,green,word,z,800,2000,4,4,0,z,1,0.6419333999947412,None,0,4,4,51,42.49657410000509,,,,,,,,,42.491881699999794,42.49657410000509,42.49657410000509,0.02522809999936726,42.68233490000421,42.68233490000421,43.150981700004195,z,1,0.6419333999947412,None,5.018509870342461,43.15192370000295,43.165602300010505,48.19471200001135,48.165190300001996,,,,,12344,001,2025-03-14_16h33.19.665,pleaseworkstroopcontrol,2024.2.4,59.917984262928364,2025-03-14 16h33.38.145923 -0700,
test,consistent,40,yellow,yellow,word,m,800,2000,5,5,0,m,1,0.6017252000019653,None,0,5,5,39,48.19471200001135,,,,,,,,,48.18919110001298,48.19471200001135,48.19471200001135,0.023871800003689714,48.38087730000552,48.38087730000552,48.79923060000874,m,1,0.6017252000019653,None,2.8570468135603884,48.799803200003225,48.81355350000376,51.6740725000127,51.64693110001099,,,,,12344,001,2025-03-14_16h33.19.665,pleaseworkstroopcontrol,2024.2.4,59.917984262928364,2025-03-14 16h33.38.145923 -0700,
test,consistent,54,green,green,word,m,800,2000,6,6,0,z,0,1.2549330000038026,None,0,6,6,53,51.6740725000127,,,,,,,,,51.67004350000934,51.6740725000127,51.6740725000127,0.023015200000372715,51.86244790001365,51.86244790001365,52.93037010000262,z,0,1.2549330000038026,None,5.455979248918184,52.930733600005624,52.94559320001281,58.42625870001211,58.37983050000912,,,,,12344,001,2025-03-14_16h33.19.665,pleaseworkstroopcontrol,2024.2.4,59.917984262928364,2025-03-14 16h33.38.145923 -0700,
test,inconsistent,13,purple,red,word,z,800,2000,7,7,0,z,1,1.1240774000034435,None,0,7,7,12,58.42625870001211,,,,,,,,,58.419603400005144,58.42625870001211,58.42625870001211,0.03972970000177156,58.59355400000641,58.59355400000641,59.561343200010015,z,1,1.1240774000034435,None,1.846428933579464,59.56172070000321,59.57647670000733,61.43592100001115,61.39343320000626,,,,,12344,001,2025-03-14_16h33.19.665,pleaseworkstroopcontrol,2024.2.4,59.917984262928364,2025-03-14 16h33.38.145923 -0700,
test,inconsistent,19,green,red,word,z,800,2000,8,8,0,z,1,1.4535389000084251,None,0,8,8,18,61.43592100001115,,,,,,,,,61.42863950000901,61.43592100001115,61.43592100001115,0.03524910000851378,61.609039600007236,61.609039600007236,62.894373700008146,z,1,1.4535389000084251,None,1.817862539658483,62.89485640000203,62.908807600004366,64.73485370000708,64.70946510000795,,,,,12344,001,2025-03-14_16h33.19.665,pleaseworkstroopcontrol,2024.2.4,59.917984262928364,2025-03-14 16h33.38.145923 -0700,
test,inconsistent,6,red,yellow,word,z,800,2000,9,9,0,z,1,1.3606129999971017,None,0,9,9,5,64.73485370000708,,,,,,,,,64.73050670001248,64.73485370000708,64.73485370000708,0.020765499997651204,64.9247347000055,64.9247347000055,66.10991820000345,z,1,1.3606129999971017,None,5.967409783239413,66.11071450001327,66.12435130000813,72.10393940001086,72.07277470000554,,,,,12344,001,2025-03-14_16h33.19.665,pleaseworkstroopcontrol,2024.2.4,59.917984262928364,2025-03-14 16h33.38.145923 -0700,
test,inconsistent,31,yellow,red,word,z,800,2000,10,10,0,z,1,1.3021842000016477,None,0,10,10,30,72.10393940001086,,,,,,,,,72.09975660000055,72.10393940001086,72.10393940001086,0.02682289999211207,72.28881530000945,72.28881530000945,73.42308870000124,z,1,1.3021842000016477,None,4.133171738666684,73.42346250000992,73.43861800000013,77.5996210000012,77.55505700000504,,,,,12344,001,2025-03-14_16h33.19.665,pleaseworkstroopcontrol,2024.2.4,59.917984262928364,2025-03-14 16h33.38.145923 -0700,
test,consistent,7,green,green,word,m,800,2000,11,11,0,m,1,1.0103111999924295,None,0,11,11,6,77.5996210000012,,,,,,,,,77.59373900000355,77.5996210000012,77.5996210000012,0.03873759999987669,77.77069030000712,77.77069030000712,78.62393330001214,m,1,1.0103111999924295,None,4.868400112589217,78.62442720000399,78.6366463000013,83.52416960000119,83.48579740000423,,,,,12344,001,2025-03-14_16h33.19.665,pleaseworkstroopcontrol,2024.2.4,59.917984262928364,2025-03-14 16h33.38.145923 -0700,
test,inconsistent,8,black,yellow,word,z,800,2000,12,12,0,z,1,0.7961510000022827,None,0,12,12,7,83.52416960000119,,,,,,,,,83.5199147000094,83.52416960000119,83.52416960000119,0.034030800001346506,83.7015623000043,83.7015623000043,84.33670800000255,z,1,0.7961510000022827,None,1.5734707040300653,84.33728580000752,84.35153770000034,85.93863330000022,85.90176880000217,,,,,12344,001,2025-03-14_16h33.19.665,pleaseworkstroopcontrol,2024.2.4,59.917984262928364,2025-03-14 16h33.38.145923 -0700,
test,inconsistent,16,red,green,word,z,800,2000,13,13,0,z,1,0.8693858999904478,None,0,13,13,15,85.93863330000022,,,,,,,,,85.93281540001044,85.93863330000022,85.93863330000022,0.03095719999691937,86.11749070000951,86.11749070000951,86.81899160001194,z,1,0.8693858999904478,None,3.526125071983568,86.81959910001024,86.83405770000536,90.36475300000166,90.33348860000842,,,,,12344,001,2025-03-14_16h33.19.665,pleaseworkstroopcontrol,2024.2.4,59.917984262928364,2025-03-14 16h33.38.145923 -0700,
test,inconsistent,48,yellow,red,word,z,800,2000,14,14,0,z,1,0.9783344000024954,None,0,14,14,47,90.36475300000166,,,,,,,,,90.36005490001116,90.36475300000166,90.36475300000166,0.026775799997267313,90.54916120000416,90.54916120000416,91.35034570000425,z,1,0.9783344000024954,None,2.701579198902923,91.3508351000055,91.36626290000277,94.08402650000062,94.04866250000487,,,,,12344,001,2025-03-14_16h33.19.665,pleaseworkstroopcontrol,2024.2.4,59.917984262928364,2025-03-14 16h33.38.145923 -0700,
test,inconsistent,42,green,yellow,word,z,800,2000,15,15,0,z,1,0.9517917000048328,None,0,15,15,41,94.08402650000062,,,,,,,,,94.07947350000904,94.08402650000062,94.08402650000062,0.030772199999773875,94.24815560001298,94.24815560001298,95.05011520000699,z,1,0.9517917000048328,None,1.6492597577346026,95.0505109000078,95.0643742000102,96.73425670000142,96.69796840001072,,,,,12344,001,2025-03-14_16h33.19.665,pleaseworkstroopcontrol,2024.2.4,59.917984262928364,2025-03-14 16h33.38.145923 -0700,
test,consistent,38,blue,blue,word,m,800,2000,16,16,0,m,1,1.3166175999940606,None,0,16,16,37,96.73425670000142,,,,,,,,,96.72878020000644,96.73425670000142,96.73425670000142,0.030863699998008087,96.91371180000715,96.91371180000715,98.06582330001402,m,1,1.3166175999940606,None,1.2281508392807692,98.06642430000647,98.08012460000464,99.32150660001207,99.28072760000941,,,,,12344,001,2025-03-14_16h33.19.665,pleaseworkstroopcontrol,2024.2.4,59.917984262928364,2025-03-14 16h33.38.145923 -0700,
test,consistent,18,red,red,word,m,800,2000,17,17,0,m,1,1.387421199993696,None,0,17,17,17,99.32150660001207,,,,,,,,,99.31590270000743,99.32150660001207,99.32150660001207,0.035187500005122274,99.49626379999972,99.49626379999972,100.71448260000034,m,1,1.387421199993696,None,1.2724619372462063,100.71520040000905,100.72928830000455,102.01507860000129,101.97979880000639,,,,,12344,001,2025-03-14_16h33.19.665,pleaseworkstroopcontrol,2024.2.4,59.917984262928364,2025-03-14 16h33.38.145923 -0700,
test,inconsistent,21,black,yellow,word,z,800,2000,18,18,0,z,1,0.8051055999967502,None,0,18,18,20,102.01507860000129,,,,,,,,,102.00921810000727,102.01507860000129,102.01507860000129,0.02952170000935439,102.19542540000111,102.19542540000111,102.8300939000037,z,1,0.8051055999967502,None,4.303722280349083,102.83070170000428,102.84522710001329,107.16773700001067,107.12796840000374,,,,,12344,001,2025-03-14_16h33.19.665,pleaseworkstroopcontrol,2024.2.4,59.917984262928364,2025-03-14 16h33.38.145923 -0700,
test,inconsistent,25,red,blue,word,z,800,2000,19,19,0,z,1,0.9492816000129096,None,0,19,19,24,107.16773700001067,,,,,,,,,107.16260840000177,107.16773700001067,107.16773700001067,0.03448240000579972,107.34352410001156,107.34352410001156,108.12865290000627,z,1,0.9492816000129096,None,4.678711125846503,108.12937270000111,108.14321100000234,112.83218910000869,112.79222930000105,,,,,12344,001,2025-03-14_16h33.19.665,pleaseworkstroopcontrol,2024.2.4,59.917984262928364,2025-03-14 16h33.38.145923 -0700,
test,inconsistent,50,yellow,green,word,z,800,2000,20,20,0,z,1,0.9476923000038369,None,0,20,20,49,112.83218910000869,,,,,,,,,112.82717930000217,112.83218910000869,112.83218910000869,0.034887500005424954,113.00835590000497,113.00835590000497,113.79230170001392,z,1,0.9476923000038369,None,4.414752855691004,113.79269220000424,113.80793480000284,118.22499950000201,118.19049650001398,,,,,12344,001,2025-03-14_16h33.19.665,pleaseworkstroopcontrol,2024.2.4,59.917984262928364,2025-03-14 16h33.38.145923 -0700,
test,inconsistent,33,yellow,green,word,z,800,2000,21,21,0,z,1,1.4680083999992348,None,0,21,21,32,118.22499950000201,,,,,,,,,118.21941990000778,118.22499950000201,118.22499950000201,0.029187899999669753,118.38986020001175,118.38986020001175,119.70764880000206,z,1,1.4680083999992348,None,4.03008079127876,119.70832920000248,119.72252860000299,123.7558115000138,123.72255580000638,,,,,12344,001,2025-03-14_16h33.19.665,pleaseworkstroopcontrol,2024.2.4,59.917984262928364,2025-03-14 16h33.38.145923 -0700,
test,consistent,49,yellow,yellow,word,m,800,2000,22,22,0,m,1,1.1311754000053043,None,0,22,22,48,123.7558115000138,,,,,,,,,123.75161060001119,123.7558115000138,123.7558115000138,0.028816400008508936,123.93773910000164,123.93773910000164,124.88918950001244,m,1,1.1311754000053043,None,3.632101836084697,124.88970390000031,124.9041736000072,128.556144400005,128.52006820001407,,,,,12344,001,2025-03-14_16h33.19.665,pleaseworkstroopcontrol,2024.2.4,59.917984262928364,2025-03-14 16h33.38.145923 -0700,
test,consistent,57,yellow,yellow,word,m,800,2000,23,23,0,m,1,0.6922661999997217,None,0,23,23,56,128.556144400005,,,,,,,,,128.55181570000423,128.556144400005,128.556144400005,0.031720500002847984,128.71934320000582,128.71934320000582,129.2548109000054,m,1,0.6922661999997217,None,4.005692854132794,129.2554807000124,129.26932500000112,133.28432320000138,133.25202840000566,,,,,12344,001,2025-03-14_16h33.19.665,pleaseworkstroopcontrol,2024.2.4,59.917984262928364,2025-03-14 16h33.38.145923 -0700,
test,inconsistent,20,red,green,word,z,800,2000,24,24,0,z,1,0.739886800001841,None,0,24,24,19,133.28432320000138,,,,,,,,,133.27954350000073,133.28432320000138,133.28432320000138,0.02748540000175126,133.46832630000426,133.46832630000426,134.03632600000128,z,1,0.739886800001841,None,4.442949556100449,134.03677390000666,134.0509202000103,138.49546110001393,138.46661339999991,,,,,12344,001,2025-03-14_16h33.19.665,pleaseworkstroopcontrol,2024.2.4,59.917984262928364,2025-03-14 16h33.38.145923 -0700,
test,inconsistent,24,blue,green,word,z,800,2000,25,25,0,z,1,1.5653614000038942,None,0,25,25,23,138.49546110001393,,,,,,,,,138.49094820000755,138.49546110001393,138.49546110001393,0.024386400007642806,138.66601850000734,138.66601850000734,140.06820410001092,z,1,1.5653614000038942,None,4.309815850695356,140.06888640001125,140.0822662000137,144.39980760001345,144.36494830000447,,,,,12344,001,2025-03-14_16h33.19.665,pleaseworkstroopcontrol,2024.2.4,59.917984262928364,2025-03-14 16h33.38.145923 -0700,
test,inconsistent,2,yellow,green,word,z,800,2000,26,26,0,z,1,1.1835522999899695,None,0,26,26,1,144.39980760001345,,,,,,,,,144.39439170001424,144.39980760001345,144.39980760001345,0.029230999993160367,144.58065260000876,144.58065260000876,145.59882990000187,z,1,1.1835522999899695,None,3.53242668426346,145.59944160000305,145.61531670000113,149.1597671000054,149.13025440000638,,,,,12344,001,2025-03-14_16h33.19.665,pleaseworkstroopcontrol,2024.2.4,59.917984262928364,2025-03-14 16h33.38.145923 -0700,
test,inconsistent,27,green,red,word,z,800,2000,27,27,0,z,1,1.3965810999943642,None,0,27,27,26,149.1597671000054,,,,,,,,,149.1557135000039,149.1597671000054,149.1597671000054,0.025443300008191727,149.34586930001387,149.34586930001387,150.5633865000127,z,1,1.3965810999943642,None,1.0538567228521603,150.56374830000277,150.57861120000598,151.64172290000715,151.61228370000026,,,,,12344,001,2025-03-14_16h33.19.665,pleaseworkstroopcontrol,2024.2.4,59.917984262928364,2025-03-14 16h33.38.145923 -0700,
test,inconsistent,11,green,red,word,z,800,2000,28,28,0,z,1,0.8904869000107283,None,0,28,28,10,151.64172290000715,,,,,,,,,151.63772750001226,151.64172290000715,151.64172290000715,0.025321299995994195,151.81154180000885,151.81154180000885,152.54586160001054,z,1,0.8904869000107283,None,3.4301566235823406,152.5463247000007,152.5614423000079,156.00086480000755,155.9609177000093,,,,,12344,001,2025-03-14_16h33.19.665,pleaseworkstroopcontrol,2024.2.4,59.917984262928364,2025-03-14 16h33.38.145923 -0700,
test,consistent,36,red,red,word,m,800,2000,29,29,0,m,1,1.0951868999982253,None,0,29,29,35,156.00086480000755,,,,,,,,,155.9955634000071,156.00086480000755,156.00086480000755,0.03460310000809841,156.17676480000955,156.17676480000955,157.11137230000168,m,1,1.0951868999982253,None,3.8462141100725353,157.11174980000942,157.12656550000247,160.98022560001118,160.94231180001225,,,,,12344,001,2025-03-14_16h33.19.665,pleaseworkstroopcontrol,2024.2.4,59.917984262928364,2025-03-14 16h33.38.145923 -0700,
test,inconsistent,55,green,yellow,word,z,800,2000,30,30,0,z,1,0.9470724999991944,None,0,30,30,54,160.98022560001118,,,,,,,,,160.97630100000242,160.98022560001118,160.98022560001118,0.03400770000007469,161.14161750000494,161.14161750000494,161.94269310000527,z,1,0.9470724999991944,None,5.884146472178102,161.94307060001302,161.9586307999998,167.8620471000031,167.82347740000114,,,,,12344,001,2025-03-14_16h33.19.665,pleaseworkstroopcontrol,2024.2.4,59.917984262928364,2025-03-14 16h33.38.145923 -0700,
test,inconsistent,58,yellow,red,word,z,800,2000,31,31,0,z,1,1.339853800003766,None,0,31,31,57,167.8620471000031,,,,,,,,,167.8563867000048,167.8620471000031,167.8620471000031,0.03296669998962898,168.03926930000307,168.03926930000307,169.2072928000125,z,1,1.339853800003766,None,5.122608427593036,169.2077552000119,169.22333810001146,174.35230490000686,174.32154890001402,,,,,12344,001,2025-03-14_16h33.19.665,pleaseworkstroopcontrol,2024.2.4,59.917984262928364,2025-03-14 16h33.38.145923 -0700,
test,inconsistent,53,red,yellow,word,z,800,2000,32,32,0,z,1,0.9477594999916619,None,0,32,32,52,174.35230490000686,,,,,,,,,174.34786030001123,174.35230490000686,174.35230490000686,0.02630650000355672,174.5371165000106,174.5371165000106,175.3049236000079,z,1,0.9477594999916619,None,1.3205691057066802,175.3054065000033,175.32022320000397,176.65978929999983,176.62072760000592,,,,,12344,001,2025-03-14_16h33.19.665,pleaseworkstroopcontrol,2024.2.4,59.917984262928364,2025-03-14 16h33.38.145923 -0700,
test,inconsistent,44,green,red,word,z,800,2000,33,33,0,z,1,1.8922441999893636,None,0,33,33,43,176.65978929999983,,,,,,,,,176.65467880001233,176.65978929999983,176.65978929999983,0.03409290000854526,176.83626780001214,176.83626780001214,178.5544729000103,z,1,1.8922441999893636,None,1.4053017303620698,178.55509890000394,178.5691155000095,179.99431050001294,179.9526795000129,,,,,12344,001,2025-03-14_16h33.19.665,pleaseworkstroopcontrol,2024.2.4,59.917984262928364,2025-03-14 16h33.38.145923 -0700,
test,inconsistent,32,orange,green,word,z,800,2000,34,34,0,z,1,0.7526533000054769,None,0,34,34,31,179.99431050001294,,,,,,,,,179.98835070000496,179.99431050001294,179.99431050001294,0.03569769999012351,180.16858850000426,180.16858850000426,180.75392130001273,z,1,0.7526533000054769,None,1.30296447140702,180.754640500003,180.7682535000058,182.09301270000287,182.0519850000128,,,,,12344,001,2025-03-14_16h33.19.665,pleaseworkstroopcontrol,2024.2.4,59.917984262928364,2025-03-14 16h33.38.145923 -0700,
test,consistent,28,yellow,yellow,word,m,800,2000,35,35,0,m,1,0.7876191999966977,None,0,35,35,27,182.09301270000287,,,,,,,,,182.08853100000124,182.09301270000287,182.09301270000287,0.036440800002310425,182.25150610000128,182.25150610000128,182.88519270000688,m,1,0.7876191999966977,None,2.5635208209270868,182.88555130000168,182.90070310000738,185.47536370001035,185.43421110000054,,,,,12344,001,2025-03-14_16h33.19.665,pleaseworkstroopcontrol,2024.2.4,59.917984262928364,2025-03-14 16h33.38.145923 -0700,
test,consistent,41,green,green,word,m,800,2000,36,36,0,m,1,0.7735907000023872,None,0,36,36,40,185.47536370001035,,,,,,,,,185.46978120000858,185.47536370001035,185.47536370001035,0.035591899999417365,185.64975670000422,185.64975670000422,186.25193950001267,m,1,0.7735907000023872,None,2.0884484658887943,186.2524939000141,186.26620490000641,188.36524880000798,188.33287570001266,,,,,12344,001,2025-03-14_16h33.19.665,pleaseworkstroopcontrol,2024.2.4,59.917984262928364,2025-03-14 16h33.38.145923 -0700,
test,consistent,45,red,red,word,m,800,2000,37,37,0,m,1,0.6562084999895887,None,0,37,37,44,188.36524880000798,,,,,,,,,188.36075690000143,188.36524880000798,188.36524880000798,0.027930199998081662,188.5324144000042,188.5324144000042,189.03321030001098,m,1,0.6562084999895887,None,5.14505703173661,189.03362560000096,189.04867810000724,194.20433090000006,194.1646749000065,,,,,12344,001,2025-03-14_16h33.19.665,pleaseworkstroopcontrol,2024.2.4,59.917984262928364,2025-03-14 16h33.38.145923 -0700,
test,inconsistent,39,red,yellow,word,z,800,2000,38,38,0,z,1,1.0810301000019535,None,0,38,38,38,194.20433090000006,,,,,,,,,194.19973150000442,194.20433090000006,194.20433090000006,0.03491240000585094,194.3802558000025,194.3802558000025,195.2980923000141,z,1,1.0810301000019535,None,2.475607959598189,195.29862140001205,195.31332760000078,197.7936669000046,197.76326690000133,,,,,12344,001,2025-03-14_16h33.19.665,pleaseworkstroopcontrol,2024.2.4,59.917984262928364,2025-03-14 16h33.38.145923 -0700,
test,inconsistent,37,red,green,word,z,800,2000,39,39,0,z,1,1.15551769999729,None,0,39,39,36,197.7936669000046,,,,,,,,,197.7895472000091,197.7936669000046,197.7936669000046,0.02639929999713786,197.97897160000866,197.97897160000866,198.96311670000432,z,1,1.15551769999729,None,2.8900254882450476,198.96360830000776,198.9786940000049,201.8824244000134,201.84533050000027,,,,,12344,001,2025-03-14_16h33.19.665,pleaseworkstroopcontrol,2024.2.4,59.917984262928364,2025-03-14 16h33.38.145923 -0700,
test,consistent,43,green,green,word,m,800,2000,40,40,0,m,1,0.911800999994739,None,0,40,40,42,201.8824244000134,,,,,,,,,201.87787100000423,201.8824244000134,201.8824244000134,0.032418299990240484,202.06126990000485,202.06126990000485,202.79604880000988,m,1,0.911800999994739,None,3.4221302358385084,202.79643610000494,202.81086480000522,206.2497840000142,206.21039200000814,,,,,12344,001,2025-03-14_16h33.19.665,pleaseworkstroopcontrol,2024.2.4,59.917984262928364,2025-03-14 16h33.38.145923 -0700,
test,inconsistent,17,yellow,green,word,z,800,2000,41,41,0,z,1,0.942645100003574,None,0,41,41,16,206.2497840000142,,,,,,,,,206.24385430000257,206.2497840000142,206.2497840000142,0.03335349999542814,206.4262155000033,206.4262155000033,207.1951359000086,z,1,0.942645100003574,None,2.328520371926854,207.19578460000048,207.209207900014,209.5380850000074,209.50932230000035,,,,,12344,001,2025-03-14_16h33.19.665,pleaseworkstroopcontrol,2024.2.4,59.917984262928364,2025-03-14 16h33.38.145923 -0700,
test,inconsistent,10,green,yellow,word,z,800,2000,42,42,0,z,1,1.3148164000012912,None,0,42,42,9,209.5380850000074,,,,,,,,,209.53166469999996,209.5380850000074,209.5380850000074,0.022432300000218675,209.72520910001185,209.72520910001185,210.85921890000463,z,1,1.3148164000012912,None,1.3993629013829414,210.85962100001052,210.8745792000118,212.28424970000924,212.2585509000055,,,,,12344,001,2025-03-14_16h33.19.665,pleaseworkstroopcontrol,2024.2.4,59.917984262928364,2025-03-14 16h33.38.145923 -0700,
test,consistent,23,green,green,word,m,800,2000,43,43,0,m,1,0.6110857000021497,None,0,43,43,22,212.28424970000924,,,,,,,,,212.27986360000796,212.28424970000924,212.28424970000924,0.02139530000567902,212.4739755000046,212.4739755000046,212.90851960000873,m,1,0.6110857000021497,None,1.9327014811328282,212.90904630000296,212.92383600000176,214.8761736000015,214.8410101000045,,,,,12344,001,2025-03-14_16h33.19.665,pleaseworkstroopcontrol,2024.2.4,59.917984262928364,2025-03-14 16h33.38.145923 -0700,
test,consistent,34,green,green,word,m,800,2000,44,44,0,m,1,0.6914462000131607,None,0,44,44,33,214.8761736000015,,,,,,,,,214.87221940000018,214.8761736000015,214.8761736000015,0.030963299999712035,215.05682100000558,215.05682100000558,215.57445390000066,m,1,0.6914462000131607,None,4.741121298050912,215.57496600000013,215.58954000000085,220.32912090000173,220.30536040000152,,,,,12344,001,2025-03-14_16h33.19.665,pleaseworkstroopcontrol,2024.2.4,59.917984262928364,2025-03-14 16h33.38.145923 -0700,
test,inconsistent,5,orange,blue,word,z,800,2000,45,45,0,z,1,0.8938722000020789,None,0,45,45,4,220.32912090000173,,,,,,,,,220.32267050001246,220.32912090000173,220.32912090000173,0.01737049999064766,220.52133630000753,220.52133630000753,221.23871230000805,z,1,0.8938722000020789,None,2.0871175488594402,221.23912720000953,221.25428210000973,223.35418580000987,223.3212790000107,,,,,12344,001,2025-03-14_16h33.19.665,pleaseworkstroopcontrol,2024.2.4,59.917984262928364,2025-03-14 16h33.38.145923 -0700,
test,inconsistent,15,yellow,red,word,z,800,2000,46,46,0,z,1,1.1316602000006242,None,0,46,46,14,223.35418580000987,,,,,,,,,223.34914850001223,223.35418580000987,223.35418580000987,0.027648599992971867,223.53685730000143,223.53685730000143,224.48935800000618,z,1,1.1316602000006242,None,3.0881338542359935,224.49005430001125,224.5032598000107,227.60688500000106,227.57086690000142,,,,,12344,001,2025-03-14_16h33.19.665,pleaseworkstroopcontrol,2024.2.4,59.917984262928364,2025-03-14 16h33.38.145923 -0700,
test,inconsistent,22,red,yellow,word,z,800,2000,47,47,0,z,1,1.4174327999935485,None,0,47,47,21,227.60688500000106,,,,,,,,,227.60135120000632,227.60688500000106,227.60688500000106,0.030673599991132505,227.7855447000038,227.7855447000038,229.0365235000063,z,1,1.4174327999935485,None,2.712201601493499,229.03696930001024,229.05178560000786,231.77246010000817,231.7351825000078,,,,,12344,001,2025-03-14_16h33.19.665,pleaseworkstroopcontrol,2024.2.4,59.917984262928364,2025-03-14 16h33.38.145923 -0700,
test,consistent,46,yellow,yellow,word,m,800,2000,48,48,0,m,1,0.7247238000127254,None,0,48,48,45,231.77246010000817,,,,,,,,,231.76604100000986,231.77246010000817,231.77246010000817,0.030906699990737252,231.95059070001298,231.95059070001298,232.50175540000782,m,1,0.7247238000127254,None,1.5157699462656506,232.5021737000061,232.51757540000835,234.06093620001047,234.01767890001065,,,,,12344,001,2025-03-14_16h33.19.665,pleaseworkstroopcontrol,2024.2.4,59.917984262928364,2025-03-14 16h33.38.145923 -0700,
test,consistent,1,red,red,word,m,800,2000,49,49,0,m,1,0.7128318000031868,None,0,49,49,0,234.06093620001047,,,,,,,,,234.05554670000856,234.06093620001047,234.06093620001047,0.03774449999036733,234.21688090001408,234.21688090001408,234.78433160000714,m,1,0.7128318000031868,None,1.1311420461310264,234.78475230000913,234.79969580000034,235.92544830001134,235.9010804999998,,,,,12344,001,2025-03-14_16h33.19.665,pleaseworkstroopcontrol,2024.2.4,59.917984262928364,2025-03-14 16h33.38.145923 -0700,
test,consistent,51,red,red,word,m,800,2000,50,50,0,m,1,0.7661246999923605,None,0,50,50,50,235.92544830001134,,,,,,,,,235.92037450001226,235.92544830001134,235.92544830001134,0.019458100010524504,236.11579410001286,236.11579410001286,236.70069640000293,m,1,0.7661246999923605,None,2.0775523657123913,236.70106120000128,236.71576980000827,238.80614990000322,238.76597330000368,,,,,12344,001,2025-03-14_16h33.19.665,pleaseworkstroopcontrol,2024.2.4,59.917984262928364,2025-03-14 16h33.38.145923 -0700,
test,consistent,47,blue,blue,word,m,800,2000,51,51,0,m,1,1.2621913000039058,None,0,51,51,46,238.80614990000322,,,,,,,,,238.8010263000033,238.80614990000322,238.80614990000322,0.0350754999963101,238.98149310000008,238.98149310000008,240.08278030001384,m,1,1.2621913000039058,None,3.8354804010187245,240.08333510000375,240.09779400000116,243.9486678000103,243.9145428000047,,,,,12344,001,2025-03-14_16h33.19.665,pleaseworkstroopcontrol,2024.2.4,59.917984262928364,2025-03-14 16h33.38.145923 -0700,
test,inconsistent,56,green,red,word,z,800,2000,52,52,0,z,1,1.0792403999948874,None,0,52,52,55,243.9486678000103,,,,,,,,,243.94405240000924,243.9486678000103,243.9486678000103,0.029314800005522557,244.13136240000313,244.13136240000313,245.03183050001098,z,1,1.0792403999948874,None,2.2164857483328313,245.03254520001065,245.0463907000085,247.27270640000643,247.24610870001197,,,,,12344,001,2025-03-14_16h33.19.665,pleaseworkstroopcontrol,2024.2.4,59.917984262928364,2025-03-14 16h33.38.145923 -0700,
test,inconsistent,59,yellow,green,word,z,800,2000,53,53,0,z,1,0.7562631999899168,None,0,53,53,58,247.27270640000643,,,,,,,,,247.26785010000458,247.27270640000643,247.27270640000643,0.021685800005798228,247.4622747000103,247.4622747000103,248.03106200000911,z,1,0.7562631999899168,None,3.5092438428144117,248.03164860000834,248.04523950000294,251.55665490000683,251.52853080000204,,,,,12344,001,2025-03-14_16h33.19.665,pleaseworkstroopcontrol,2024.2.4,59.917984262928364,2025-03-14 16h33.38.145923 -0700,
test,consistent,35,red,red,word,m,800,2000,54,54,0,m,1,0.6106421000004048,None,0,54,54,34,251.55665490000683,,,,,,,,,251.55222240000148,251.55665490000683,251.55665490000683,0.02367249999952037,251.74399100001028,251.74399100001028,252.1780820000131,m,1,0.6106421000004048,None,4.719832083798959,252.17845280001347,252.1935564000014,256.92994450000697,256.89293430000544,,,,,12344,001,2025-03-14_16h33.19.665,pleaseworkstroopcontrol,2024.2.4,59.917984262928364,2025-03-14 16h33.38.145923 -0700,
test,inconsistent,4,red,green,word,z,800,2000,55,55,0,z,1,0.9039967999997316,None,0,55,55,3,256.92994450000697,,,,,,,,,256.92199800000526,256.92994450000697,256.92994450000697,0.02918149999459274,257.108682200007,257.108682200007,257.8436565000011,z,1,0.9039967999997316,None,5.6715438365385245,257.84402370000316,257.85862770001404,263.5493601000053,263.50790960001177,,,,,12344,001,2025-03-14_16h33.19.665,pleaseworkstroopcontrol,2024.2.4,59.917984262928364,2025-03-14 16h33.38.145923 -0700,
test,inconsistent,30,blue,red,word,z,800,2000,56,56,0,z,1,1.1059147999912966,None,0,56,56,29,263.5493601000053,,,,,,,,,263.54222820000723,263.5493601000053,263.5493601000053,0.0343630999996094,263.72330880000663,263.72330880000663,264.65859950000595,z,1,1.1059147999912966,None,3.2003170956852873,264.65906990000803,264.67290890000004,267.88974920001056,267.8563133000134,,,,,12344,001,2025-03-14_16h33.19.665,pleaseworkstroopcontrol,2024.2.4,59.917984262928364,2025-03-14 16h33.38.145923 -0700,
test,inconsistent,3,blue,red,word,z,800,2000,57,57,0,z,1,1.1988711999874795,None,0,57,57,2,267.88974920001056,,,,,,,,,267.883828200007,267.88974920001056,267.88974920001056,0.027321300003677607,268.0715973000042,268.0715973000042,269.1063498000003,z,1,1.1988711999874795,None,1.6207867463476786,269.10682670000824,269.1213043000025,270.75303850001364,270.7215714000049,,,,,12344,001,2025-03-14_16h33.19.665,pleaseworkstroopcontrol,2024.2.4,59.917984262928364,2025-03-14 16h33.38.145923 -0700,
test,inconsistent,26,green,yellow,word,z,800,2000,58,58,0,z,1,1.3356385000079172,None,0,58,58,25,270.75303850001364,,,,,,,,,270.7479963000078,270.75303850001364,270.75303850001364,0.026397100009489805,270.93791550000606,270.93791550000606,272.10593700000027,z,1,1.3356385000079172,None,5.8551962511457685,272.1063569000107,272.1206157000124,277.98571690000244,277.95250100000703,,,,,12344,001,2025-03-14_16h33.19.665,pleaseworkstroopcontrol,2024.2.4,59.917984262928364,2025-03-14 16h33.38.145923 -0700,
test,inconsistent,59,yellow,green,word,z,800,2000,59,0,1,z,1,0.8459789000044111,None,1,0,59,58,277.98571690000244,,,,,,,,,277.9806235000142,277.98571690000244,277.98571690000244,0.028213000012328848,278.15163030000986,278.15163030000986,278.8362996000069,z,1,0.8459789000044111,None,3.7681255119778516,278.83671960000356,278.85149570000067,282.6381118999998,282.6010537000111,,,,,12344,001,2025-03-14_16h33.19.665,pleaseworkstroopcontrol,2024.2.4,59.917984262928364,2025-03-14 16h33.38.145923 -0700,
test,inconsistent,16,red,green,word,z,800,2000,60,1,1,z,1,1.1379794999957085,None,1,1,60,15,282.6381118999998,,,,,,,,,282.63336010000785,282.6381118999998,282.6381118999998,0.032246499991742894,282.8167073000077,282.8167073000077,283.7842578000127,z,1,1.1379794999957085,None,2.707914271064968,283.78467680000176,283.7995516000083,286.51196360000176,286.48270140000386,,,,,12344,001,2025-03-14_16h33.19.665,pleaseworkstroopcontrol,2024.2.4,59.917984262928364,2025-03-14 16h33.38.145923 -0700,
test,inconsistent,15,yellow,red,word,z,800,2000,61,2,1,z,1,0.8453840000001946,None,1,2,61,14,286.51196360000176,,,,,,,,,286.5075463000103,286.51196360000176,286.51196360000176,0.024798200000077486,286.6987291000114,286.6987291000114,287.3666674000124,z,1,0.8453840000001946,None,3.2580409673362682,287.36723850001,287.3815956000035,290.6484638000111,290.61432950000744,,,,,12344,001,2025-03-14_16h33.19.665,pleaseworkstroopcontrol,2024.2.4,59.917984262928364,2025-03-14 16h33.38.145923 -0700,
test,consistent,36,red,red,word,m,800,2000,62,3,1,m,1,0.9902734000061173,None,1,3,62,35,290.6484638000111,,,,,,,,,290.6425503000064,290.6484638000111,290.6484638000111,0.02878749999217689,290.8139069000026,290.8139069000026,291.648345300011,m,1,0.9902734000061173,None,1.0099899657584623,291.6488328000123,291.66344260000915,292.6859347000136,292.6474862000032,,,,,12344,001,2025-03-14_16h33.19.665,pleaseworkstroopcontrol,2024.2.4,59.917984262928364,2025-03-14 16h33.38.145923 -0700,
test,consistent,47,blue,blue,word,m,800,2000,63,4,1,m,1,0.6626052000065101,None,1,4,63,46,292.6859347000136,,,,,,,,,292.68056060001254,292.6859347000136,292.6859347000136,0.03280590000213124,292.8631333000085,292.8631333000085,293.36409200000344,m,1,0.6626052000065101,None,5.772745209354424,293.364467300009,293.37949300000037,299.15383790001215,299.1290723000129,,,,,12344,001,2025-03-14_16h33.19.665,pleaseworkstroopcontrol,2024.2.4,59.917984262928364,2025-03-14 16h33.38.145923 -0700,
test,inconsistent,52,red,green,word,z,800,2000,64,5,1,z,1,0.8320865999994567,None,1,5,64,51,299.15383790001215,,,,,,,,,299.14925349999976,299.15383790001215,299.15383790001215,0.02004329999908805,299.34411730000284,299.34411730000284,299.99526660000265,z,1,0.8320865999994567,None,4.6853187786651,299.9958280000137,300.0124601000134,304.715746700007,304.6766408000112,,,,,12344,001,2025-03-14_16h33.19.665,pleaseworkstroopcontrol,2024.2.4,59.917984262928364,2025-03-14 16h33.38.145923 -0700,
test,consistent,57,yellow,yellow,word,m,800,2000,65,6,1,m,1,0.5942634999955771,None,1,6,65,56,304.715746700007,,,,,,,,,304.7103783000057,304.715746700007,304.715746700007,0.03375999999116175,304.89221020000696,304.89221020000696,305.32682320001186,m,1,0.5942634999955771,None,4.7877973443424615,305.3271767000115,305.3421268000093,310.1349760000012,310.1081591000111,,,,,12344,001,2025-03-14_16h33.19.665,pleaseworkstroopcontrol,2024.2.4,59.917984262928364,2025-03-14 16h33.38.145923 -0700,
test,inconsistent,27,green,red,word,z,800,2000,66,7,1,z,1,0.7381052999990061,None,1,7,66,26,310.1349760000012,,,,,,,,,310.1299716000067,310.1349760000012,310.1349760000012,0.021837199994479306,310.3236906000093,310.3236906000093,310.87482740000996,z,1,0.7381052999990061,None,1.1413170987522205,310.87523310001416,310.89008750001085,312.04883040000277,312.0075726000068,,,,,12344,001,2025-03-14_16h33.19.665,pleaseworkstroopcontrol,2024.2.4,59.917984262928364,2025-03-14 16h33.38.145923 -0700,
test,inconsistent,32,orange,green,word,z,800,2000,67,8,1,z,1,0.8958714000036707,None,1,8,67,31,312.04883040000277,,,,,,,,,312.0429829000059,312.04883040000277,312.04883040000277,0.03542169999855105,312.2231162000098,312.2231162000098,312.9582531000051,z,1,0.8958714000036707,None,4.117137176840923,312.9592199000035,312.9729786000098,317.10627280001063,317.0719705000083,,,,,12344,001,2025-03-14_16h33.19.665,pleaseworkstroopcontrol,2024.2.4,59.917984262928364,2025-03-14 16h33.38.145923 -0700,
test,inconsistent,44,green,red,word,z,800,2000,68,9,1,z,1,1.1828238000016427,None,1,9,68,43,317.10627280001063,,,,,,,,,317.1015790000092,317.10627280001063,317.10627280001063,0.029600699999718927,317.27140730000974,317.27140730000974,318.30614940001396,z,1,1.1828238000016427,None,1.540921307508468,318.3066598000005,318.3210079000128,319.8718894000049,319.83839580000495,,,,,12344,001,2025-03-14_16h33.19.665,pleaseworkstroopcontrol,2024.2.4,59.917984262928364,2025-03-14 16h33.38.145923 -0700,
test,inconsistent,56,green,red,word,z,800,2000,69,10,1,z,1,0.910958100008429,None,1,10,69,55,319.8718894000049,,,,,,,,,319.8666155000101,319.8718894000049,319.8718894000049,0.028347899991786107,320.0537822000042,320.0537822000042,320.788761600008,z,1,0.910958100008429,None,2.8040126740681837,320.7893247000029,320.80352090000815,323.6176417000097,323.58667490001244,,,,,12344,001,2025-03-14_16h33.19.665,pleaseworkstroopcontrol,2024.2.4,59.917984262928364,2025-03-14 16h33.38.145923 -0700,
test,consistent,38,blue,blue,word,m,800,2000,70,11,1,m,1,0.6573425000096904,None,1,11,70,37,323.6176417000097,,,,,,,,,323.6125583000103,323.6176417000097,323.6176417000097,0.025943100001313724,323.80257730001176,323.80257730001176,324.28745440000785,m,1,0.6573425000096904,None,3.602276989907935,324.2880368000042,324.3024187000119,327.9279045000003,327.8851735000062,,,,,12344,001,2025-03-14_16h33.19.665,pleaseworkstroopcontrol,2024.2.4,59.917984262928364,2025-03-14 16h33.38.145923 -0700,
test,consistent,51,red,red,word,m,800,2000,71,12,1,z,0,1.2465401999943424,None,1,12,71,50,327.9279045000003,,,,,,,,,327.92291180000757,327.9279045000003,327.9279045000003,0.03769600001396611,328.10099120000086,328.10099120000086,329.1848522000073,z,0,1.2465401999943424,None,4.301303851180162,329.1852198000124,329.2016549000109,333.51201600000786,333.48325450000993,,,,,12344,001,2025-03-14_16h33.19.665,pleaseworkstroopcontrol,2024.2.4,59.917984262928364,2025-03-14 16h33.38.145923 -0700,
test,inconsistent,53,red,yellow,word,z,800,2000,72,13,1,z,1,0.8033742000116035,None,1,13,72,52,333.51201600000786,,,,,,,,,333.5081666000042,333.51201600000786,333.51201600000786,0.0249436999874888,333.69905930000823,333.69905930000823,334.3174674000038,z,1,0.8033742000116035,None,5.19997272719763,334.3178270000062,334.33300320000853,339.55630740000925,339.51451670000097,,,,,12344,001,2025-03-14_16h33.19.665,pleaseworkstroopcontrol,2024.2.4,59.917984262928364,2025-03-14 16h33.38.145923 -0700,
test,consistent,54,green,green,word,m,800,2000,73,14,1,m,1,0.6628009999985807,None,1,14,73,53,339.55630740000925,,,,,,,,,339.55066920000536,339.55630740000925,339.55630740000925,0.036165400000754744,339.73047660000157,339.73047660000157,340.23283910000464,m,1,0.6628009999985807,None,4.902449431106194,340.2334600000031,340.2467439000029,345.15226230000553,345.129265200012,,,,,12344,001,2025-03-14_16h33.19.665,pleaseworkstroopcontrol,2024.2.4,59.917984262928364,2025-03-14 16h33.38.145923 -0700,
test,inconsistent,39,red,yellow,word,z,800,2000,74,15,1,z,1,1.1132914000045275,None,1,15,74,38,345.15226230000553,,,,,,,,,345.1480320000119,345.15226230000553,345.15226230000553,0.018681799992918968,345.3450384000025,345.3450384000025,346.27958970000327,z,1,1.1132914000045275,None,3.5606148737880985,346.2799543000001,346.2948061000061,349.86498030000075,349.8283036000066,,,,,12344,001,2025-03-14_16h33.19.665,pleaseworkstroopcontrol,2024.2.4,59.917984262928364,2025-03-14 16h33.38.145923 -0700,
test,consistent,23,green,green,word,m,800,2000,75,16,1,m,1,0.5851273000007495,None,1,16,75,22,349.86498030000075,,,,,,,,,349.8601883000083,349.86498030000075,349.86498030000075,0.0317600999987917,350.0433852000133,350.0433852000133,350.4619541000138,m,1,0.5851273000007495,None,4.168920213015348,350.46256150001136,350.47682010001154,354.65548660000786,354.62620980000065,,,,,12344,001,2025-03-14_16h33.19.665,pleaseworkstroopcontrol,2024.2.4,59.917984262928364,2025-03-14 16h33.38.145923 -0700,
test,consistent,46,yellow,yellow,word,m,800,2000,76,17,1,m,1,0.7152838000038173,None,1,17,76,45,354.65548660000786,,,,,,,,,354.65014650000376,354.65548660000786,354.65548660000786,0.023889800009783357,354.8416775000078,354.8416775000078,355.3771132000111,m,1,0.7152838000038173,None,3.3833820387359017,355.377636300007,355.3916917000024,358.7825875000126,358.75790360000974,,,,,12344,001,2025-03-14_16h33.19.665,pleaseworkstroopcontrol,2024.2.4,59.917984262928364,2025-03-14 16h33.38.145923 -0700,
test,inconsistent,48,yellow,red,word,z,800,2000,77,18,1,z,1,1.410664099996211,None,1,18,77,47,358.7825875000126,,,,,,,,,358.77837260000524,358.7825875000126,358.7825875000126,0.020434900012332946,358.9736730000004,358.9736730000004,360.20887070000754,z,1,1.410664099996211,None,5.777182714090801,360.20933220000006,360.2233325000125,365.99535070000275,365.9722686000023,,,,,12344,001,2025-03-14_16h33.19.665,pleaseworkstroopcontrol,2024.2.4,59.917984262928364,2025-03-14 16h33.38.145923 -0700,
test,inconsistent,33,yellow,green,word,z,800,2000,78,19,1,z,1,0.9506300000066403,None,1,19,78,32,365.99535070000275,,,,,,,,,365.9905568000104,365.99535070000275,365.99535070000275,0.018244499995489605,366.187869100002,366.187869100002,366.9563465000101,z,1,0.9506300000066403,None,3.447896387335471,366.9569951000012,366.97100960000535,370.4206925000035,370.40436930001306,,,,,12344,001,2025-03-14_16h33.19.665,pleaseworkstroopcontrol,2024.2.4,59.917984262928364,2025-03-14 16h33.38.145923 -0700,
test,inconsistent,17,yellow,green,word,z,800,2000,79,20,1,z,1,0.6675314000021899,None,1,20,79,16,370.4206925000035,,,,,,,,,370.41685980001057,370.4206925000035,370.4206925000035,0.01236550000612624,370.6199215000088,370.6199215000088,371.10414540000784,z,1,0.6675314000021899,None,1.9809789436007472,371.10465820001264,371.1195955000003,373.09519280001405,373.0698875000089,,,,,12344,001,2025-03-14_16h33.19.665,pleaseworkstroopcontrol,2024.2.4,59.917984262928364,2025-03-14 16h33.38.145923 -0700,
test,inconsistent,4,red,green,word,z,800,2000,80,21,1,z,1,0.8798727999965195,None,1,21,80,3,373.09519280001405,,,,,,,,,373.09036870001,373.09519280001405,373.09519280001405,0.020484699998633005,373.2853993000026,373.2853993000026,373.98715320001065,z,1,0.8798727999965195,None,3.2448319719750804,373.9877458000119,374.001900800009,377.24314850001247,377.2181166000082,,,,,12344,001,2025-03-14_16h33.19.665,pleaseworkstroopcontrol,2024.2.4,59.917984262928364,2025-03-14 16h33.38.145923 -0700,
test,inconsistent,5,orange,blue,word,z,800,2000,81,22,1,z,1,0.6554187000001548,None,1,22,81,4,377.24314850001247,,,,,,,,,377.2382181000139,377.24314850001247,377.24314850001247,0.020041100011439994,377.4338426000031,377.4338426000031,377.9015194000094,z,1,0.6554187000001548,None,4.791451338415261,377.901895700008,377.9171803000063,382.7195805000083,382.683131400001,,,,,12344,001,2025-03-14_16h33.19.665,pleaseworkstroopcontrol,2024.2.4,59.917984262928364,2025-03-14 16h33.38.145923 -0700,
test,inconsistent,10,green,yellow,word,z,800,2000,82,23,1,z,1,0.5965666999982204,None,1,23,82,9,382.7195805000083,,,,,,,,,382.7152894000028,382.7195805000083,382.7195805000083,0.03203170000051614,382.89893570001004,382.89893570001004,383.33326730001136,z,1,0.5965666999982204,None,2.6807072450530396,383.333721300005,383.3486528000067,386.02937220000604,385.9985119000048,,,,,12344,001,2025-03-14_16h33.19.665,pleaseworkstroopcontrol,2024.2.4,59.917984262928364,2025-03-14 16h33.38.145923 -0700,
test,inconsistent,19,green,red,word,z,800,2000,83,24,1,z,1,0.9430901000014273,None,1,24,83,18,386.02937220000604,,,,,,,,,386.0242983000062,386.02937220000604,386.02937220000604,0.0257458999985829,386.2146336000005,386.2146336000005,386.98195100000885,z,1,0.9430901000014273,None,4.934342975079253,386.98234760000196,386.9974102000124,391.9499449000141,391.91328460001387,,,,,12344,001,2025-03-14_16h33.19.665,pleaseworkstroopcontrol,2024.2.4,59.917984262928364,2025-03-14 16h33.38.145923 -0700,
test,consistent,28,yellow,yellow,word,m,800,2000,84,25,1,m,1,0.7363290999928722,None,1,25,84,27,391.9499449000141,,,,,,,,,391.9453846000106,391.9499449000141,391.9499449000141,0.03234520000114571,392.12887590000173,392.12887590000173,392.6981596000114,m,1,0.7363290999928722,None,2.884146297349907,392.6988949000079,392.71217310000793,395.6042618000065,395.57846340000106,,,,,12344,001,2025-03-14_16h33.19.665,pleaseworkstroopcontrol,2024.2.4,59.917984262928364,2025-03-14 16h33.38.145923 -0700,
test,consistent,41,green,green,word,m,800,2000,85,26,1,m,1,0.8650487999984762,None,1,26,85,40,395.6042618000065,,,,,,,,,395.59914990000834,395.6042618000065,395.6042618000065,0.020609400002285838,395.7944043000025,395.7944043000025,396.4785700000066,m,1,0.8650487999984762,None,1.5618656229574164,396.47893620000104,396.49415460000455,398.0515762000141,398.0276125000091,,,,,12344,001,2025-03-14_16h33.19.665,pleaseworkstroopcontrol,2024.2.4,59.917984262928364,2025-03-14 16h33.38.145923 -0700,
test,inconsistent,55,green,yellow,word,z,800,2000,86,27,1,z,1,0.8648735000024317,None,1,27,86,54,398.0515762000141,,,,,,,,,398.0476306000055,398.0515762000141,398.0515762000141,0.019991299996036105,398.2270024000027,398.2270024000027,398.92773920000764,z,1,0.8648735000024317,None,3.216470324523723,398.9281148000009,398.94321680000576,402.1743604000076,402.1427919000125,,,,,12344,001,2025-03-14_16h33.19.665,pleaseworkstroopcontrol,2024.2.4,59.917984262928364,2025-03-14 16h33.38.145923 -0700,
test,inconsistent,3,blue,red,word,z,800,2000,87,28,1,z,1,0.666223500011256,None,1,28,87,2,402.1743604000076,,,,,,,,,402.1676804000017,402.1743604000076,402.1743604000076,0.02491340000415221,402.3423554000037,402.3423554000037,402.8433767000097,z,1,0.666223500011256,None,1.7203498983003898,402.84379640000407,402.85856250001234,404.59753870000714,404.5593387000117,,,,,12344,001,2025-03-14_16h33.19.665,pleaseworkstroopcontrol,2024.2.4,59.917984262928364,2025-03-14 16h33.38.145923 -0700,
test,inconsistent,50,yellow,green,word,z,800,2000,88,29,1,z,1,0.7888405999983661,None,1,29,88,49,404.59753870000714,,,,,,,,,404.59183630000916,404.59753870000714,404.59753870000714,0.032753899999079295,404.7745692000026,404.7745692000026,405.3924556000129,z,1,0.7888405999983661,None,1.8726542245690578,405.3928341000137,405.40764230000786,407.29273190000094,407.25796830000763,,,,,12344,001,2025-03-14_16h33.19.665,pleaseworkstroopcontrol,2024.2.4,59.917984262928364,2025-03-14 16h33.38.145923 -0700,
test,consistent,35,red,red,word,m,800,2000,89,30,1,m,1,0.7453357000049436,None,1,30,89,34,407.29273190000094,,,,,,,,,407.2882821000094,407.29273190000094,407.29273190000094,0.030361500001163222,407.4737083000073,407.4737083000073,408.0424742000032,m,1,0.7453357000049436,None,1.115437441361577,408.04290520001086,408.05686690000584,409.1809895000042,409.1573781000043,,,,,12344,001,2025-03-14_16h33.19.665,pleaseworkstroopcontrol,2024.2.4,59.917984262928364,2025-03-14 16h33.38.145923 -0700,
test,inconsistent,25,red,blue,word,z,800,2000,90,31,1,z,1,0.645824300008826,None,1,31,90,24,409.1809895000042,,,,,,,,,409.1767324000102,409.1809895000042,409.1809895000042,0.019323100001201965,409.37309240001196,409.37309240001196,409.84122370000114,z,1,0.645824300008826,None,3.110117094989272,409.841845700008,409.8561716000113,412.9672850000061,412.9390076000127,,,,,12344,001,2025-03-14_16h33.19.665,pleaseworkstroopcontrol,2024.2.4,59.917984262928364,2025-03-14 16h33.38.145923 -0700,
test,inconsistent,29,green,blue,word,z,800,2000,91,32,1,z,1,0.7394503999967128,None,1,32,91,28,412.9672850000061,,,,,,,,,412.9628837000055,412.9672850000061,412.9672850000061,0.023891799995908514,413.13855600000534,413.13855600000534,413.7229294000135,z,1,0.7394503999967128,None,5.802646863546889,413.72334700000647,413.73842450001393,419.54349140000704,419.5207636000123,,,,,12344,001,2025-03-14_16h33.19.665,pleaseworkstroopcontrol,2024.2.4,59.917984262928364,2025-03-14 16h33.38.145923 -0700,
test,inconsistent,22,red,yellow,word,z,800,2000,92,33,1,z,1,0.7041790000075707,None,1,33,92,21,419.54349140000704,,,,,,,,,419.5374445000052,419.54349140000704,419.54349140000704,0.016653600003337488,419.73624050000217,419.73624050000217,420.25376030000916,z,1,0.7041790000075707,None,3.931130700190448,420.2541657000111,420.2691681000142,424.19212060001155,424.1687449000019,,,,,12344,001,2025-03-14_16h33.19.665,pleaseworkstroopcontrol,2024.2.4,59.917984262928364,2025-03-14 16h33.38.145923 -0700,
test,inconsistent,20,red,green,word,z,800,2000,93,34,1,z,1,1.0559627000038745,None,1,34,93,19,424.19212060001155,,,,,,,,,424.1878538000019,424.19212060001155,424.19212060001155,0.018944900002679788,424.384796000013,424.384796000013,425.2521906000038,z,1,1.0559627000038745,None,1.8186355845423439,425.2526370000123,425.2674756000051,427.10840900000767,427.06797150000057,,,,,12344,001,2025-03-14_16h33.19.665,pleaseworkstroopcontrol,2024.2.4,59.917984262928364,2025-03-14 16h33.38.145923 -0700,
test,inconsistent,58,yellow,red,word,z,800,2000,94,35,1,z,1,0.8328904999943916,None,1,35,94,57,427.10840900000767,,,,,,,,,427.10184540000046,427.10840900000767,427.10840900000767,0.033970999997109175,427.28381980000995,427.28381980000995,427.95164000001387,z,1,0.8328904999943916,None,2.566723294727941,427.95214960000885,427.9671246000071,430.54982840000594,430.516454800003,,,,,12344,001,2025-03-14_16h33.19.665,pleaseworkstroopcontrol,2024.2.4,59.917984262928364,2025-03-14 16h33.38.145923 -0700,
test,inconsistent,26,green,yellow,word,z,800,2000,95,36,1,z,1,0.7654650000040419,None,1,36,95,25,430.54982840000594,,,,,,,,,430.5450458000123,430.54982840000594,430.54982840000594,0.028877000004285946,430.7157544000074,430.7157544000074,431.31688840000425,z,1,0.7654650000040419,None,2.9380529453337796,431.3172967000137,431.33244590001414,434.28834270000516,434.2486728000076,,,,,12344,001,2025-03-14_16h33.19.665,pleaseworkstroopcontrol,2024.2.4,59.917984262928364,2025-03-14 16h33.38.145923 -0700,
test,consistent,34,green,green,word,m,800,2000,96,37,1,m,1,0.9036865000089165,None,1,37,96,33,434.28834270000516,,,,,,,,,434.28211870000814,434.28834270000516,434.28834270000516,0.03368680000130553,434.4644149000087,434.4644149000087,435.199354700002,m,1,0.9036865000089165,None,5.606348182589241,435.2000504000025,435.21419980000064,440.8217801999999,440.7965794000047,,,,,12344,001,2025-03-14_16h33.19.665,pleaseworkstroopcontrol,2024.2.4,59.917984262928364,2025-03-14 16h33.38.145923 -0700,
test,consistent,18,red,red,word,m,800,2000,97,38,1,m,1,0.6946368000062648,None,1,38,97,17,440.8217801999999,,,,,,,,,440.8173386000126,440.8217801999999,440.8217801999999,0.020722899993415922,441.01221369999985,441.01221369999985,441.53032210000674,m,1,0.6946368000062648,None,5.540365734167935,441.5309225000092,441.54528270001174,447.0837993000023,447.0611869000131,,,,,12344,001,2025-03-14_16h33.19.665,pleaseworkstroopcontrol,2024.2.4,59.917984262928364,2025-03-14 16h33.38.145923 -0700,
test,inconsistent,6,red,yellow,word,z,800,2000,98,39,1,z,1,0.6276332999987062,None,1,39,98,5,447.0837993000023,,,,,,,,,447.0798732000112,447.0837993000023,447.0837993000023,0.018575299996882677,447.2767043000058,447.2767043000058,447.72785720000684,z,1,0.6276332999987062,None,2.220062164427919,447.7283374000108,447.7435003000137,449.97808720001194,449.94311970000854,,,,,12344,001,2025-03-14_16h33.19.665,pleaseworkstroopcontrol,2024.2.4,59.917984262928364,2025-03-14 16h33.38.145923 -0700,
test,inconsistent,13,purple,red,word,z,800,2000,99,40,1,z,1,0.8710283000109484,None,1,40,99,12,449.97808720001194,,,,,,,,,449.9734659000096,449.97808720001194,449.97808720001194,0.030343000005814247,450.1589884000132,450.1589884000132,450.86033160000807,z,1,0.8710283000109484,None,4.233298629952792,450.860711900008,450.8757164000126,455.1283356000058,455.0921439000085,,,,,12344,001,2025-03-14_16h33.19.665,pleaseworkstroopcontrol,2024.2.4,59.917984262928364,2025-03-14 16h33.38.145923 -0700,
test,consistent,40,yellow,yellow,word,m,800,2000,100,41,1,m,1,0.8560381999996025,None,1,41,100,39,455.1283356000058,,,,,,,,,455.1222470000066,455.1283356000058,455.1283356000058,0.030092000000877306,455.3072923,455.3072923,455.9924966000108,m,1,0.8560381999996025,None,5.009669925193917,455.99311760001,456.00714380000136,461.02223460000823,460.98973250000563,,,,,12344,001,2025-03-14_16h33.19.665,pleaseworkstroopcontrol,2024.2.4,59.917984262928364,2025-03-14 16h33.38.145923 -0700,
test,inconsistent,30,blue,red,word,z,800,2000,101,42,1,z,1,0.7862028999952599,None,1,42,101,29,461.02223460000823,,,,,,,,,461.0167505000136,461.02223460000823,461.02223460000823,0.026925799989840016,461.2052440000116,461.2052440000116,461.8228034000058,z,1,0.7862028999952599,None,5.598714962387051,461.8232280000084,461.83829400000104,467.44414510000206,467.4205981000123,,,,,12344,001,2025-03-14_16h33.19.665,pleaseworkstroopcontrol,2024.2.4,59.917984262928364,2025-03-14 16h33.38.145923 -0700,
test,inconsistent,2,yellow,green,word,z,800,2000,102,43,1,z,1,1.1730999999999767,None,1,43,102,1,467.44414510000206,,,,,,,,,467.43939270000556,467.44414510000206,467.44414510000206,0.018839700001990423,467.6362901000102,467.6362901000102,468.6207962000044,z,1,1.1730999999999767,None,5.6073234582552125,468.6212259000022,468.63623820000794,474.2509238000057,474.2185285000014,,,,,12344,001,2025-03-14_16h33.19.665,pleaseworkstroopcontrol,2024.2.4,59.917984262928364,2025-03-14 16h33.38.145923 -0700,
test,consistent,49,yellow,yellow,word,m,800,2000,103,44,1,m,1,0.6515171000064583,None,1,44,103,48,474.2509238000057,,,,,,,,,474.24715950000973,474.2509238000057,474.2509238000057,0.02846760000102222,474.4341087000066,474.4341087000066,474.91841260000365,m,1,0.6515171000064583,None,5.76915878279565,474.9188043000031,474.9343554000079,480.716908900009,480.68291140001384,,,,,12344,001,2025-03-14_16h33.19.665,pleaseworkstroopcontrol,2024.2.4,59.917984262928364,2025-03-14 16h33.38.145923 -0700,
test,inconsistent,31,yellow,red,word,z,800,2000,104,45,1,z,1,1.065461200007121,None,1,45,104,30,480.716908900009,,,,,,,,,480.71291210000345,480.716908900009,480.716908900009,0.029881800001021475,480.8984240000136,480.8984240000136,481.8006059000036,z,1,1.065461200007121,None,1.0500334247212493,481.8012075000006,481.81500159999996,482.888993200002,482.84933810000075,,,,,12344,001,2025-03-14_16h33.19.665,pleaseworkstroopcontrol,2024.2.4,59.917984262928364,2025-03-14 16h33.38.145923 -0700,
test,inconsistent,11,green,red,word,z,800,2000,105,46,1,z,1,1.1075844000006327,None,1,46,105,10,482.888993200002,,,,,,,,,482.8825749000098,482.888993200002,482.888993200002,0.03331590000016149,483.06458970000676,483.06458970000676,483.999006500002,z,1,1.1075844000006327,None,1.2288250351477294,483.9994219000073,484.0140095000097,485.24903840001207,485.214781600007,,,,,12344,001,2025-03-14_16h33.19.665,pleaseworkstroopcontrol,2024.2.4,59.917984262928364,2025-03-14 16h33.38.145923 -0700,
test,consistent,1,red,red,word,m,800,2000,106,47,1,m,1,0.6545952999877045,None,1,47,106,0,485.24903840001207,,,,,,,,,485.24361620000855,485.24903840001207,485.24903840001207,0.02869059999648016,485.43041190000076,485.43041190000076,485.9150004000112,m,1,0.6545952999877045,None,3.886599039749416,485.915496600006,485.9299394000118,489.8225694000139,489.7959540000011,,,,,12344,001,2025-03-14_16h33.19.665,pleaseworkstroopcontrol,2024.2.4,59.917984262928364,2025-03-14 16h33.38.145923 -0700,
test,inconsistent,9,red,blue,word,z,800,2000,107,48,1,z,1,0.6723665999888908,None,1,48,107,8,489.8225694000139,,,,,,,,,489.8180786000012,489.8225694000139,489.8225694000139,0.02219070000865031,489.9954567000095,489.9954567000095,490.49702980001166,z,1,0.6723665999888908,None,3.7364259854582684,490.4974595000094,490.5119482000009,494.2619759000081,494.22832900000503,,,,,12344,001,2025-03-14_16h33.19.665,pleaseworkstroopcontrol,2024.2.4,59.917984262928364,2025-03-14 16h33.38.145923 -0700,
test,consistent,45,red,red,word,m,800,2000,108,49,1,m,1,0.6767562000022735,None,1,49,108,44,494.2619759000081,,,,,,,,,494.25703940000676,494.2619759000081,494.2619759000081,0.028648099993006326,494.44443040000624,494.44443040000624,494.9449087000103,m,1,0.6767562000022735,None,4.233994733700825,494.94532290000643,494.96040500000527,499.2041659000097,499.17667320001055,,,,,12344,001,2025-03-14_16h33.19.665,pleaseworkstroopcontrol,2024.2.4,59.917984262928364,2025-03-14 16h33.38.145923 -0700,
test,consistent,43,green,green,word,m,800,2000,109,50,1,m,1,0.7494309999892721,None,1,50,109,42,499.2041659000097,,,,,,,,,499.1999460000079,499.2041659000097,499.2041659000097,0.02323880000039935,499.392070700007,499.392070700007,499.96093310001015,m,1,0.7494309999892721,None,1.9445386155355773,499.96134800001164,499.9751998000138,501.92376240000885,501.89200790000905,,,,,12344,001,2025-03-14_16h33.19.665,pleaseworkstroopcontrol,2024.2.4,59.917984262928364,2025-03-14 16h33.38.145923 -0700,
test,inconsistent,42,green,yellow,word,z,800,2000,110,51,1,z,1,0.9375767999881646,None,1,51,110,41,501.92376240000885,,,,,,,,,501.919427300003,501.92376240000885,501.92376240000885,0.027461799996672198,502.1077079000097,502.1077079000097,502.8752925000008,z,1,0.9375767999881646,None,5.808008270327287,502.87564450000355,502.8914921000105,508.70566430001054,508.67318130000785,,,,,12344,001,2025-03-14_16h33.19.665,pleaseworkstroopcontrol,2024.2.4,59.917984262928364,2025-03-14 16h33.38.145923 -0700,
test,inconsistent,37,red,green,word,z,800,2000,111,52,1,z,1,1.2469329000014113,None,1,52,111,36,508.70566430001054,,,,,,,,,508.7005160000117,508.70566430001054,508.70566430001054,0.027229500003159046,508.8888783000002,508.8888783000002,509.9565081000037,z,1,1.2469329000014113,None,2.2276314163513358,509.95695970000816,509.9722407000081,512.2130598000076,512.1718910000054,,,,,12344,001,2025-03-14_16h33.19.665,pleaseworkstroopcontrol,2024.2.4,59.917984262928364,2025-03-14 16h33.38.145923 -0700,
test,inconsistent,21,black,yellow,word,z,800,2000,112,53,1,z,1,0.7817437000048812,None,1,53,112,20,512.2130598000076,,,,,,,,,512.2079927000013,512.2130598000076,512.2130598000076,0.035949600001913495,512.3875280000066,512.3875280000066,513.0053436000017,z,1,0.7817437000048812,None,2.1199327636283742,513.0057784000091,513.0211054000101,515.1440147000103,515.1206286000088,,,,,12344,001,2025-03-14_16h33.19.665,pleaseworkstroopcontrol,2024.2.4,59.917984262928364,2025-03-14 16h33.38.145923 -0700,
test,inconsistent,24,blue,green,word,z,800,2000,113,54,1,z,1,2.085905300002196,None,1,54,113,23,515.1440147000103,,,,,,,,,515.1396070000046,515.1440147000103,515.1440147000103,0.019001300010131672,515.3364292000042,515.3364292000042,517.237526900004,z,1,2.085905300002196,None,3.0993329959828326,517.2379676000128,517.2525402000028,520.3634326000029,520.3360340000072,,,,,12344,001,2025-03-14_16h33.19.665,pleaseworkstroopcontrol,2024.2.4,59.917984262928364,2025-03-14 16h33.38.145923 -0700,
test,consistent,12,yellow,yellow,word,m,800,2000,114,55,1,m,1,1.2803378000098746,None,1,55,114,11,520.3634326000029,,,,,,,,,520.3585043000057,520.3634326000029,520.3634326000029,0.02246690000174567,520.5516341000039,520.5516341000039,521.6527798000025,m,1,1.2803378000098746,None,1.451062299663052,521.6532671000023,521.6678350000002,523.125477300011,523.1015495000029,,,,,12344,001,2025-03-14_16h33.19.665,pleaseworkstroopcontrol,2024.2.4,59.917984262928364,2025-03-14 16h33.38.145923 -0700,
test,inconsistent,14,yellow,blue,word,z,800,2000,115,56,1,z,1,0.9069295999943279,None,1,56,115,13,523.125477300011,,,,,,,,,523.1211083000089,523.125477300011,523.125477300011,0.019409900007303804,523.3172123000113,523.3172123000113,524.034854700003,z,1,0.9069295999943279,None,1.9966647638759634,524.0352383999998,524.0502309000003,526.0532330000133,526.0179817000026,,,,,12344,001,2025-03-14_16h33.19.665,pleaseworkstroopcontrol,2024.2.4,59.917984262928364,2025-03-14 16h33.38.145923 -0700,
test,consistent,7,green,green,word,m,800,2000,116,57,1,m,1,1.0022699999972247,None,1,57,116,6,526.0532330000133,,,,,,,,,526.048904500014,526.0532330000133,526.0532330000133,0.03072690000408329,526.2328638000035,526.2328638000035,527.0676792000013,m,1,1.0022699999972247,None,4.777991401305891,527.0682119000121,527.0826169000065,531.8643324000004,531.8314676000009,,,,,12344,001,2025-03-14_16h33.19.665,pleaseworkstroopcontrol,2024.2.4,59.917984262928364,2025-03-14 16h33.38.145923 -0700,
test,inconsistent,8,black,yellow,word,z,800,2000,117,58,1,z,1,2.5239572999998927,None,1,58,117,7,531.8643324000004,,,,,,,,,531.8600264000124,531.8643324000004,531.8643324000004,0.028588600005605258,532.0309515000117,532.0309515000117,534.3991381000087,z,1,2.5239572999998927,None,5.335473782633004,534.3997646000062,534.4137758000143,539.7642336000135,539.729418700008,,,,,12344,001,2025-03-14_16h33.19.665,pleaseworkstroopcontrol,2024.2.4,59.917984262928364,2025-03-14 16h33.38.145923 -0700,
test,inconsistent,31,yellow,red,word,z,800,2000,118,0,2,z,1,1.2353627999982564,None,2,0,118,30,539.7642336000135,,,,,,,,,539.7580896,539.7642336000135,539.7642336000135,0.028754600003594533,539.9446992000012,539.9446992000012,541.0129461000033,z,1,1.2353627999982564,None,5.034675602805456,541.0136159000103,541.0277552000043,546.0728234000126,546.0438525000063,,,,,12344,001,2025-03-14_16h33.19.665,pleaseworkstroopcontrol,2024.2.4,59.917984262928364,2025-03-14 16h33.38.145923 -0700,
test,consistent,49,yellow,yellow,word,m,800,2000,119,1,2,m,1,0.5991328999953112,None,2,1,119,48,546.0728234000126,,,,,,,,,546.0686595000006,546.0728234000126,546.0728234000126,0.025037200000951998,546.2594396000059,546.2594396000059,546.6771590000135,m,1,0.5991328999953112,None,4.5201190758494665,546.6776210000098,546.6925368000084,551.2285020000127,551.1918638000061,,,,,12344,001,2025-03-14_16h33.19.665,pleaseworkstroopcontrol,2024.2.4,59.917984262928364,2025-03-14 16h33.38.145923 -0700,
test,inconsistent,48,yellow,red,word,z,800,2000,120,2,2,z,1,1.2938242999953218,None,2,2,120,47,551.2285020000127,,,,,,,,,551.2239963000029,551.2285020000127,551.2285020000127,0.03219719999469817,551.4078095000004,551.4078095000004,552.5261664999998,z,1,1.2938242999953218,None,3.7531521996658945,552.5266385000141,552.5405031000118,556.3035487000016,556.2747527000029,,,,,12344,001,2025-03-14_16h33.19.665,pleaseworkstroopcontrol,2024.2.4,59.917984262928364,2025-03-14 16h33.38.145923 -0700,
test,consistent,35,red,red,word,m,800,2000,121,3,2,m,1,0.6138848999980837,None,2,3,121,34,556.3035487000016,,,,,,,,,556.2986965000018,556.3035487000016,556.3035487000016,0.02394270000513643,556.4891997000086,556.4891997000086,556.9236518000107,m,1,0.6138848999980837,None,3.2803129979144616,556.9240402000141,556.9391918000038,560.2269052000047,560.1885967000126,,,,,12344,001,2025-03-14_16h33.19.665,pleaseworkstroopcontrol,2024.2.4,59.917984262928364,2025-03-14 16h33.38.145923 -0700,
test,consistent,28,yellow,yellow,word,m,800,2000,122,4,2,m,1,0.830319699991378,None,2,4,122,27,560.2269052000047,,,,,,,,,560.220865700001,560.2269052000047,560.2269052000047,0.03230159998929594,560.4045055000024,560.4045055000024,561.0721541000094,m,1,0.830319699991378,None,2.1160747138301637,561.0725199000008,561.0877570000011,563.2234454000136,563.1879092000017,,,,,12344,001,2025-03-14_16h33.19.665,pleaseworkstroopcontrol,2024.2.4,59.917984262928364,2025-03-14 16h33.38.145923 -0700,
test,consistent,45,red,red,word,m,800,2000,123,5,2,m,1,1.0360041000094498,None,2,5,123,44,563.2234454000136,,,,,,,,,563.2191489000106,563.2234454000136,563.2234454000136,0.03113429999211803,563.4034655000141,563.4034655000141,564.2723497000115,m,1,1.0360041000094498,None,1.6966907735442163,564.2729937000113,564.2872160000115,565.980868100014,565.953792500004,,,,,12344,001,2025-03-14_16h33.19.665,pleaseworkstroopcontrol,2024.2.4,59.917984262928364,2025-03-14 16h33.38.145923 -0700,
test,inconsistent,53,red,yellow,word,z,800,2000,124,6,2,z,1,0.725705899996683,None,2,6,124,52,565.980868100014,,,,,,,,,565.9764927000069,565.980868100014,565.980868100014,0.02264429999922868,566.1692866000085,566.1692866000085,566.7209603000083,z,1,0.725705899996683,None,2.6872262204815813,566.7216618000093,566.7357308000064,569.439993500011,569.4023939000035,,,,,12344,001,2025-03-14_16h33.19.665,pleaseworkstroopcontrol,2024.2.4,59.917984262928364,2025-03-14 16h33.38.145923 -0700,
test,inconsistent,17,yellow,green,word,z,800,2000,125,7,2,z,1,0.8350051999877905,None,2,7,125,16,569.439993500011,,,,,,,,,569.4335830000055,569.439993500011,569.439993500011,0.031168900008196943,569.617975000001,569.617975000001,570.2875655000098,z,1,0.8350051999877905,None,1.2041851780634647,570.2881669000053,570.3013054000039,571.5253103000141,571.4847199000069,,,,,12344,001,2025-03-14_16h33.19.665,pleaseworkstroopcontrol,2024.2.4,59.917984262928364,2025-03-14 16h33.38.145923 -0700,
test,inconsistent,21,black,yellow,word,z,800,2000,126,8,2,z,1,0.9144073999923421,None,2,8,126,20,571.5253103000141,,,,,,,,,571.5200720000139,571.5253103000141,571.5253103000141,0.03544740000506863,571.7008384000073,571.7008384000073,572.4524221000029,z,1,0.9144073999923421,None,3.768954276721462,572.4529588000005,572.4669434000098,576.2480258000141,576.2165691000118,,,,,12344,001,2025-03-14_16h33.19.665,pleaseworkstroopcontrol,2024.2.4,59.917984262928364,2025-03-14 16h33.38.145923 -0700,
test,inconsistent,11,green,red,word,z,800,2000,127,9,2,z,1,1.1933184999943478,None,2,9,127,10,576.2480258000141,,,,,,,,,576.2433310000051,576.2480258000141,576.2480258000141,0.02670390000275802,576.4322548000055,576.4322548000055,577.4497076000116,z,1,1.1933184999943478,None,1.2292967191113364,577.4501059000031,577.465234000003,578.7016949000099,578.6658733000077,,,,,12344,001,2025-03-14_16h33.19.665,pleaseworkstroopcontrol,2024.2.4,59.917984262928364,2025-03-14 16h33.38.145923 -0700,
test,consistent,1,red,red,word,m,800,2000,128,10,2,m,1,0.5400176999974065,None,2,10,128,0,578.7016949000099,,,,,,,,,578.696732700002,578.7016949000099,578.7016949000099,0.030851400006213225,578.8816264000052,578.8816264000052,579.2493066000025,m,1,0.5400176999974065,None,2.841181264143211,579.2498695000104,579.2646853000042,582.1051726000005,582.0809861000016,,,,,12344,001,2025-03-14_16h33.19.665,pleaseworkstroopcontrol,2024.2.4,59.917984262928364,2025-03-14 16h33.38.145923 -0700,
test,consistent,18,red,red,word,m,800,2000,129,11,2,m,1,0.6286893999931635,None,2,11,129,17,582.1051726000005,,,,,,,,,582.1011327000015,582.1051726000005,582.1051726000005,0.020133900005021133,582.2968751000008,582.2968751000008,582.7489701000013,m,1,0.6286893999931635,None,5.860368234666747,582.7496248000098,582.7633607000025,588.6312448000099,588.5957466000109,,,,,12344,001,2025-03-14_16h33.19.665,pleaseworkstroopcontrol,2024.2.4,59.917984262928364,2025-03-14 16h33.38.145923 -0700,
test,inconsistent,3,blue,red,word,z,800,2000,130,12,2,z,1,0.6204651000007289,None,2,12,130,2,588.6312448000099,,,,,,,,,588.626236400014,588.6312448000099,588.6312448000099,0.030513199992128648,588.8113768000039,588.8113768000039,589.2629942000058,z,1,0.6204651000007289,None,1.811751137410145,589.2633624000009,589.2777918000065,591.0952147000062,591.0612689000118,,,,,12344,001,2025-03-14_16h33.19.665,pleaseworkstroopcontrol,2024.2.4,59.917984262928364,2025-03-14 16h33.38.145923 -0700,
test,inconsistent,42,green,yellow,word,z,800,2000,131,13,2,z,1,0.7418160999950487,None,2,13,131,41,591.0952147000062,,,,,,,,,591.0898247000005,591.0952147000062,591.0952147000062,0.028725399999530055,591.2604541000037,591.2604541000037,591.8452594000119,z,1,0.7418160999950487,None,5.803034209056617,591.8456434000109,591.8605903000134,597.674075700008,597.6434777000104,,,,,12344,001,2025-03-14_16h33.19.665,pleaseworkstroopcontrol,2024.2.4,59.917984262928364,2025-03-14 16h33.38.145923 -0700,
test,consistent,38,blue,blue,word,m,800,2000,132,14,2,m,1,1.0422179000015603,None,2,14,132,37,597.674075700008,,,,,,,,,597.6679104000068,597.674075700008,597.674075700008,0.024190500000258908,597.858415900002,597.858415900002,598.7260831000021,m,1,1.0422179000015603,None,5.938652780953411,598.7264894000109,598.7412930999999,604.6934478000039,604.6569900000031,,,,,12344,001,2025-03-14_16h33.19.665,pleaseworkstroopcontrol,2024.2.4,59.917984262928364,2025-03-14 16h33.38.145923 -0700,
test,inconsistent,20,red,green,word,z,800,2000,133,15,2,z,1,1.0306087999924785,None,2,15,133,19,604.6934478000039,,,,,,,,,604.6886191000085,604.6934478000039,604.6934478000039,0.031580599999870174,604.8725749000005,604.8725749000005,605.7421393000113,z,1,1.0306087999924785,None,1.2528685496695022,605.743002800009,605.755634400004,607.0274007000116,606.9903986000136,,,,,12344,001,2025-03-14_16h33.19.665,pleaseworkstroopcontrol,2024.2.4,59.917984262928364,2025-03-14 16h33.38.145923 -0700,
test,inconsistent,44,green,red,word,z,800,2000,134,16,2,z,1,0.903275599994231,None,2,16,134,43,607.0274007000116,,,,,,,,,607.0224408000067,607.0274007000116,607.0274007000116,0.03189589999965392,607.2051588000031,607.2051588000031,607.9401691000094,z,1,0.903275599994231,None,2.170790027619082,607.9408244000078,607.9546589000092,610.1324710000044,610.1047851000039,,,,,12344,001,2025-03-14_16h33.19.665,pleaseworkstroopcontrol,2024.2.4,59.917984262928364,2025-03-14 16h33.38.145923 -0700,
test,consistent,36,red,red,word,m,800,2000,135,17,2,m,1,0.6378920999995898,None,2,17,135,35,610.1324710000044,,,,,,,,,610.1279072000034,610.1324710000044,610.1324710000044,0.023175700000138022,610.320855900005,610.320855900005,610.7721598000062,m,1,0.6378920999995898,None,3.7523943038680887,610.7725322000042,610.7871637000062,614.5526488000032,614.5203750000073,,,,,12344,001,2025-03-14_16h33.19.665,pleaseworkstroopcontrol,2024.2.4,59.917984262928364,2025-03-14 16h33.38.145923 -0700,
test,inconsistent,5,orange,blue,word,z,800,2000,136,18,2,z,1,0.9316142000025138,None,2,18,136,4,614.5526488000032,,,,,,,,,614.547913900009,614.5526488000032,614.5526488000032,0.02756550000049174,614.7359160000051,614.7359160000051,615.4871127000079,z,1,0.9316142000025138,None,4.15298960014963,615.487574800005,615.5021395000076,619.6681124000024,619.6355040000053,,,,,12344,001,2025-03-14_16h33.19.665,pleaseworkstroopcontrol,2024.2.4,59.917984262928364,2025-03-14 16h33.38.145923 -0700,
test,inconsistent,14,yellow,blue,word,z,800,2000,137,19,2,z,1,1.2514486000000034,None,2,19,137,13,619.6681124000024,,,,,,,,,619.6634139000089,619.6681124000024,619.6681124000024,0.027932099997997284,619.8511312000046,619.8511312000046,620.9352025000117,z,1,1.2514486000000034,None,4.347949278262585,620.9355683000031,620.9506011000049,625.2904988000082,625.2670316000003,,,,,12344,001,2025-03-14_16h33.19.665,pleaseworkstroopcontrol,2024.2.4,59.917984262928364,2025-03-14 16h33.38.145923 -0700,
test,consistent,23,green,green,word,m,800,2000,138,20,2,m,1,0.6384589000081178,None,2,20,138,22,625.2904988000082,,,,,,,,,625.2860539000103,625.2904988000082,625.2904988000082,0.01881839999987278,625.4820807000069,625.4820807000069,625.9339793000108,m,1,0.6384589000081178,None,4.123849502470706,625.9346008000139,625.9484990000055,630.0732571000117,630.048108700008,,,,,12344,001,2025-03-14_16h33.19.665,pleaseworkstroopcontrol,2024.2.4,59.917984262928364,2025-03-14 16h33.38.145923 -0700,
test,inconsistent,29,green,blue,word,z,800,2000,139,21,2,z,1,0.8437439999979688,None,2,21,139,28,630.0732571000117,,,,,,,,,630.0692276000045,630.0732571000117,630.0732571000117,0.021051199990324676,630.2640275000012,630.2640275000012,630.9316405000136,z,1,0.8437439999979688,None,5.327856658074666,630.9321347000077,630.9469366000121,636.2837680000084,636.2459573000087,,,,,12344,001,2025-03-14_16h33.19.665,pleaseworkstroopcontrol,2024.2.4,59.917984262928364,2025-03-14 16h33.38.145923 -0700,
test,inconsistent,25,red,blue,word,z,800,2000,140,22,2,z,1,0.7077597999887075,None,2,22,140,24,636.2837680000084,,,,,,,,,636.2780939000077,636.2837680000084,636.2837680000084,0.03209940000670031,636.4616603000031,636.4616603000031,636.9963822000136,z,1,0.7077597999887075,None,2.1481985757567053,636.9967712000071,637.0115885000123,639.1670647000137,639.1283149000083,,,,,12344,001,2025-03-14_16h33.19.665,pleaseworkstroopcontrol,2024.2.4,59.917984262928364,2025-03-14 16h33.38.145923 -0700,
test,consistent,12,yellow,yellow,word,m,800,2000,141,23,2,m,1,0.6932989999913843,None,2,23,141,11,639.1670647000137,,,,,,,,,639.1612730000052,639.1670647000137,639.1670647000137,0.033136099998955615,639.343973400013,639.343973400013,639.8619222000125,m,1,0.6932989999913843,None,5.747142932908424,639.8623414000031,639.87717230001,645.6239584000141,645.5930360000057,,,,,12344,001,2025-03-14_16h33.19.665,pleaseworkstroopcontrol,2024.2.4,59.917984262928364,2025-03-14 16h33.38.145923 -0700,
test,inconsistent,9,red,blue,word,z,800,2000,142,24,2,z,1,0.8330049000069266,None,2,24,142,8,645.6239584000141,,,,,,,,,645.6190345000068,645.6239584000141,645.6239584000141,0.02581819999613799,645.808503600012,645.808503600012,646.4600435000029,z,1,0.8330049000069266,None,1.849605752254801,646.4604522000009,646.474855700013,648.3355938000022,648.3097444000014,,,,,12344,001,2025-03-14_16h33.19.665,pleaseworkstroopcontrol,2024.2.4,59.917984262928364,2025-03-14 16h33.38.145923 -0700,
test,inconsistent,55,green,yellow,word,z,800,2000,143,25,2,z,1,0.8927734000026248,None,2,25,143,54,648.3355938000022,,,,,,,,,648.3300303000142,648.3355938000022,648.3355938000022,0.02044769999338314,648.5243068000127,648.5243068000127,649.2423489000066,z,1,0.8927734000026248,None,1.3362660096869463,649.2427913000138,649.2575650000072,650.6130922000011,650.5744452000072,,,,,12344,001,2025-03-14_16h33.19.665,pleaseworkstroopcontrol,2024.2.4,59.917984262928364,2025-03-14 16h33.38.145923 -0700,
test,inconsistent,24,blue,green,word,z,800,2000,144,26,2,z,1,0.9276500999985728,None,2,26,144,23,650.6130922000011,,,,,,,,,650.6064913000009,650.6130922000011,650.6130922000011,0.032279599996400066,650.7902249000035,650.7902249000035,651.5579879000143,z,1,0.9276500999985728,None,4.759423683214949,651.5583736000117,651.573155200007,656.3331966000114,656.3065495000046,,,,,12344,001,2025-03-14_16h33.19.665,pleaseworkstroopcontrol,2024.2.4,59.917984262928364,2025-03-14 16h33.38.145923 -0700,
test,inconsistent,30,blue,red,word,z,800,2000,145,27,2,z,1,0.7422645000042394,None,2,27,145,29,656.3331966000114,,,,,,,,,656.3291911000124,656.3331966000114,656.3331966000114,0.022616299989749677,656.5213894000044,656.5213894000044,657.0896029000141,z,1,0.7422645000042394,None,5.185931982205795,657.0901867000066,657.1048071000114,662.311586900003,662.270459300009,,,,,12344,001,2025-03-14_16h33.19.665,pleaseworkstroopcontrol,2024.2.4,59.917984262928364,2025-03-14 16h33.38.145923 -0700,
test,consistent,57,yellow,yellow,word,m,800,2000,146,28,2,m,1,0.5921603000024334,None,2,28,146,56,662.311586900003,,,,,,,,,662.3056244000036,662.311586900003,662.311586900003,0.035221500002080575,662.4860612000048,662.4860612000048,662.9202102000127,m,1,0.5921603000024334,None,5.182475112073957,662.9206000000122,662.9362019000109,668.139287500002,668.1019782000076,,,,,12344,001,2025-03-14_16h33.19.665,pleaseworkstroopcontrol,2024.2.4,59.917984262928364,2025-03-14 16h33.38.145923 -0700,
test,inconsistent,33,yellow,green,word,z,800,2000,147,29,2,z,1,0.9496552999917185,None,2,29,147,32,668.139287500002,,,,,,,,,668.1327078000031,668.139287500002,668.139287500002,0.03075600000738632,668.3173348000128,668.3173348000128,669.1019102999999,z,1,0.9496552999917185,None,3.8846717362145666,669.1023118000012,669.1174800000008,673.0137594000116,672.9834979000007,,,,,12344,001,2025-03-14_16h33.19.665,pleaseworkstroopcontrol,2024.2.4,59.917984262928364,2025-03-14 16h33.38.145923 -0700,
test,consistent,7,green,green,word,m,800,2000,148,30,2,m,1,1.1076842999900691,None,2,30,148,6,673.0137594000116,,,,,,,,,673.0093053000019,673.0137594000116,673.0137594000116,0.025858399996650405,673.1991400000115,673.1991400000115,674.133359000014,m,1,1.1076842999900691,None,1.234887493687745,674.1338792000024,674.148818200003,675.3993758000142,675.3660516000091,,,,,12344,001,2025-03-14_16h33.19.665,pleaseworkstroopcontrol,2024.2.4,59.917984262928364,2025-03-14 16h33.38.145923 -0700,
test,inconsistent,16,red,green,word,z,800,2000,149,31,2,None,0,,,2,31,149,15,675.3993758000142,,,,,,,,,675.395173900004,675.3993758000142,675.3993758000142,0.02913059999991674,675.5650190000015,675.5650190000015,680.365369600011,None,0,,,4.4852719610239005,680.366001500006,680.3801476000081,684.8633500000142,684.8456408000056,3.4649659999995492,680.3801476000081,,,12344,001,2025-03-14_16h33.19.665,pleaseworkstroopcontrol,2024.2.4,59.917984262928364,2025-03-14 16h33.38.145923 -0700,
test,inconsistent,19,green,red,word,z,800,2000,150,32,2,z,1,1.179269700005534,None,2,32,150,18,684.8633500000142,,,,,,,,,684.8585713000066,684.8633500000142,684.8633500000142,0.012906300005852245,685.0449474000052,685.0449474000052,686.0458761000045,z,1,1.179269700005534,None,3.283861023821781,686.0462525000039,686.0613011000096,689.3520444000023,689.3274916000082,,,,,12344,001,2025-03-14_16h33.19.665,pleaseworkstroopcontrol,2024.2.4,59.917984262928364,2025-03-14 16h33.38.145923 -0700,
test,inconsistent,39,red,yellow,word,z,800,2000,151,33,2,z,1,1.1179719000065234,None,2,33,151,38,689.3520444000023,,,,,,,,,689.3471299000084,689.3520444000023,689.3520444000023,0.019556800005375408,689.5267075000011,689.5267075000011,690.4781355000014,z,1,1.1179719000065234,None,3.4832622641507376,690.4784953000053,690.4935053000081,693.9820074000017,693.9594785000081,,,,,12344,001,2025-03-14_16h33.19.665,pleaseworkstroopcontrol,2024.2.4,59.917984262928364,2025-03-14 16h33.38.145923 -0700,
test,inconsistent,56,green,red,word,z,800,2000,152,34,2,z,1,0.9245679000014206,None,2,34,152,55,693.9820074000017,,,,,,,,,693.9780296000099,693.9820074000017,693.9820074000017,0.018568200001027435,694.175070000012,694.175070000012,694.9097692000068,z,1,0.9245679000014206,None,3.4963322260667145,694.9101929000026,694.9247625000135,698.4228235000046,698.391317600006,,,,,12344,001,2025-03-14_16h33.19.665,pleaseworkstroopcontrol,2024.2.4,59.917984262928364,2025-03-14 16h33.38.145923 -0700,
test,consistent,43,green,green,word,m,800,2000,153,35,2,m,1,0.600473400001647,None,2,35,153,42,698.4228235000046,,,,,,,,,698.4184296000021,698.4228235000046,698.4228235000046,0.02718799999274779,698.5904063000053,698.5904063000053,699.0266359000088,m,1,0.600473400001647,None,1.5594330025913403,699.027015300002,699.0402602000104,700.6032811000041,700.5738210000127,,,,,12344,001,2025-03-14_16h33.19.665,pleaseworkstroopcontrol,2024.2.4,59.917984262928364,2025-03-14 16h33.38.145923 -0700,
test,inconsistent,50,yellow,green,word,z,800,2000,154,36,2,z,1,0.9044305999996141,None,2,36,154,49,700.6032811000041,,,,,,,,,700.5983255000028,700.6032811000041,700.6032811000041,0.02460150000115391,700.7895810000045,700.7895810000045,701.5246306000045,z,1,0.9044305999996141,None,4.663102093797763,701.5252447000094,701.5396648000024,706.213353900006,706.1722057000006,,,,,12344,001,2025-03-14_16h33.19.665,pleaseworkstroopcontrol,2024.2.4,59.917984262928364,2025-03-14 16h33.38.145923 -0700,
test,consistent,51,red,red,word,m,800,2000,155,37,2,m,1,0.7437054999900283,None,2,37,155,50,706.213353900006,,,,,,,,,706.208844400011,706.213353900006,706.213353900006,0.03657470000325702,706.3876975000021,706.3876975000021,706.972351400007,m,1,0.7437054999900283,None,3.6487785748125123,706.972894800012,706.9875769000064,710.6546621000016,710.6204152999999,,,,,12344,001,2025-03-14_16h33.19.665,pleaseworkstroopcontrol,2024.2.4,59.917984262928364,2025-03-14 16h33.38.145923 -0700,
test,inconsistent,10,green,yellow,word,z,800,2000,156,38,2,z,1,1.6162296999973478,None,2,38,156,9,710.6546621000016,,,,,,,,,710.6498420000135,710.6546621000016,710.6546621000016,0.029579499998362735,710.8367440000002,710.8367440000002,712.2868973000004,z,1,1.6162296999973478,None,2.763321383676308,712.2872807000094,712.3023908000032,715.0703080000094,715.0361842000129,,,,,12344,001,2025-03-14_16h33.19.665,pleaseworkstroopcontrol,2024.2.4,59.917984262928364,2025-03-14 16h33.38.145923 -0700,
test,inconsistent,4,red,green,word,z,800,2000,157,39,2,z,1,1.1727457999950275,None,2,39,157,3,715.0703080000094,,,,,,,,,715.0633121000137,715.0703080000094,715.0703080000094,0.02729259998886846,715.2512245000107,715.2512245000107,716.2535808000102,z,1,1.1727457999950275,None,4.289751359634973,716.2542096000107,716.2676291000098,720.5689617000025,720.5338902000076,,,,,12344,001,2025-03-14_16h33.19.665,pleaseworkstroopcontrol,2024.2.4,59.917984262928364,2025-03-14 16h33.38.145923 -0700,
test,inconsistent,22,red,yellow,word,z,800,2000,158,40,2,z,1,0.9387675000034506,None,2,40,158,21,720.5689617000025,,,,,,,,,720.5648757000017,720.5689617000025,720.5689617000025,0.030986800004029647,720.7493957000115,720.7493957000115,721.5177333000029,z,1,0.9387675000034506,None,2.4647015079015007,721.5181093000137,721.5328681000101,724.0064581000042,723.9658477000048,,,,,12344,001,2025-03-14_16h33.19.665,pleaseworkstroopcontrol,2024.2.4,59.917984262928364,2025-03-14 16h33.38.145923 -0700,
test,consistent,41,green,green,word,m,800,2000,159,41,2,m,1,0.7216773999971338,None,2,41,159,40,724.0064581000042,,,,,,,,,724.0012321000104,724.0064581000042,724.0064581000042,0.03562049999891315,724.1650870000012,724.1650870000012,724.7335811000085,m,1,0.7216773999971338,None,3.618397482169396,724.734002000012,724.7481550000084,728.3756330000033,728.3476373000012,,,,,12344,001,2025-03-14_16h33.19.665,pleaseworkstroopcontrol,2024.2.4,59.917984262928364,2025-03-14 16h33.38.145923 -0700,
test,inconsistent,26,green,yellow,word,z,800,2000,160,42,2,z,1,1.4798260999959894,None,2,42,160,25,728.3756330000033,,,,,,,,,728.3701246000128,728.3756330000033,728.3756330000033,0.022561900012078695,728.5632864000072,728.5632864000072,729.864648200004,z,1,1.4798260999959894,None,3.7721271157082086,729.8652384000015,729.879608400006,733.6621912000119,733.6290241000097,,,,,12344,001,2025-03-14_16h33.19.665,pleaseworkstroopcontrol,2024.2.4,59.917984262928364,2025-03-14 16h33.38.145923 -0700,
test,inconsistent,27,green,red,word,z,800,2000,161,43,2,z,1,1.0535172000090824,None,2,43,161,26,733.6621912000119,,,,,,,,,733.6576482000091,733.6621912000119,733.6621912000119,0.028650899999774992,733.8283355000021,733.8283355000021,734.7295214000042,z,1,1.0535172000090824,None,2.9677722485994957,734.7299879000057,734.7445076000004,737.7352907000022,737.6943427000078,,,,,12344,001,2025-03-14_16h33.19.665,pleaseworkstroopcontrol,2024.2.4,59.917984262928364,2025-03-14 16h33.38.145923 -0700,
test,inconsistent,52,red,green,word,z,800,2000,162,44,2,z,1,1.2321055999927921,None,2,44,162,51,737.7352907000022,,,,,,,,,737.7300526000035,737.7352907000022,737.7352907000022,0.03582760000426788,737.8936008000019,737.8936008000019,738.977835800004,z,1,1.2321055999927921,None,4.709517841239234,738.97821690001,738.9932795000059,743.7101644000068,743.6759428000078,,,,,12344,001,2025-03-14_16h33.19.665,pleaseworkstroopcontrol,2024.2.4,59.917984262928364,2025-03-14 16h33.38.145923 -0700,
test,consistent,54,green,green,word,m,800,2000,163,45,2,m,1,0.9240742999973008,None,2,45,163,53,743.7101644000068,,,,,,,,,743.7051140000112,743.7101644000068,743.7101644000068,0.02909860000363551,743.8915233000007,743.8915233000007,744.6422801000008,m,1,0.9240742999973008,None,2.40221452621949,744.6426367000095,744.6576642,747.0748907000088,747.0414332000073,,,,,12344,001,2025-03-14_16h33.19.665,pleaseworkstroopcontrol,2024.2.4,59.917984262928364,2025-03-14 16h33.38.145923 -0700,
test,consistent,34,green,green,word,m,800,2000,164,46,2,m,1,0.6928826999937883,None,2,46,164,33,747.0748907000088,,,,,,,,,747.0708492000122,747.0748907000088,747.0748907000088,0.029449400011799298,747.2570584000059,747.2570584000059,747.7754366000008,m,1,0.6928826999937883,None,1.9907265960519314,747.7761334000097,747.7902561000083,749.7971050000051,749.7572386000102,,,,,12344,001,2025-03-14_16h33.19.665,pleaseworkstroopcontrol,2024.2.4,59.917984262928364,2025-03-14 16h33.38.145923 -0700,
test,inconsistent,6,red,yellow,word,z,800,2000,165,47,2,z,1,1.2042837999906624,None,2,47,165,5,749.7971050000051,,,,,,,,,749.7911274000071,749.7971050000051,749.7971050000051,0.03378539999539498,749.9728419000021,749.9728419000021,751.0068307000038,z,1,1.2042837999906624,None,3.2920670496823883,751.0072039000079,751.022595100003,754.3299271000142,754.2890318000136,,,,,12344,001,2025-03-14_16h33.19.665,pleaseworkstroopcontrol,2024.2.4,59.917984262928364,2025-03-14 16h33.38.145923 -0700,
test,inconsistent,2,yellow,green,word,z,800,2000,166,48,2,z,1,1.674629899993306,None,2,48,166,1,754.3299271000142,,,,,,,,,754.323495500008,754.3299271000142,754.3299271000142,0.034580499996081926,754.5047237000108,754.5047237000108,756.006830000013,z,1,1.674629899993306,None,5.594282760585387,756.0073948000063,756.0205749000015,761.6148399000085,761.5860026000009,,,,,12344,001,2025-03-14_16h33.19.665,pleaseworkstroopcontrol,2024.2.4,59.917984262928364,2025-03-14 16h33.38.145923 -0700,
test,inconsistent,8,black,yellow,word,z,800,2000,167,49,2,z,1,0.8878925000026356,None,2,49,167,7,761.6148399000085,,,,,,,,,761.6090326000121,761.6148399000085,761.6148399000085,0.023047099995892495,761.8018894000124,761.8018894000124,762.5203063000081,z,1,0.8878925000026356,None,2.2908983911208964,762.5209051000129,762.5362185000122,764.8366028000019,764.8015239000088,,,,,12344,001,2025-03-14_16h33.19.665,pleaseworkstroopcontrol,2024.2.4,59.917984262928364,2025-03-14 16h33.38.145923 -0700,
test,inconsistent,32,orange,green,word,z,800,2000,168,50,2,z,1,1.2427278999966802,None,2,50,168,31,764.8366028000019,,,,,,,,,764.8315581000061,764.8366028000019,764.8366028000019,0.02986419999797363,765.0175500000041,765.0175500000041,766.0858924000058,z,1,1.2427278999966802,None,3.094682087826989,766.0865480000066,766.1005176000035,769.2020377000008,769.1670045000064,,,,,12344,001,2025-03-14_16h33.19.665,pleaseworkstroopcontrol,2024.2.4,59.917984262928364,2025-03-14 16h33.38.145923 -0700,
test,consistent,47,blue,blue,word,m,800,2000,169,51,2,m,1,0.681871399996453,None,2,51,169,46,769.2020377000008,,,,,,,,,769.1970601000066,769.2020377000008,769.2020377000008,0.02988519999780692,769.3661182000069,769.3661182000069,769.9001822000137,m,1,0.681871399996453,None,3.5918500829703732,769.9005609000014,769.9158117000043,773.5168618000025,773.4820791000093,,,,,12344,001,2025-03-14_16h33.19.665,pleaseworkstroopcontrol,2024.2.4,59.917984262928364,2025-03-14 16h33.38.145923 -0700,
test,consistent,46,yellow,yellow,word,m,800,2000,170,52,2,m,1,0.7671970999945188,None,2,52,170,45,773.5168618000025,,,,,,,,,773.5119502000016,773.5168618000025,773.5168618000025,0.029813999994075857,773.69800080001,773.69800080001,774.3005317000061,m,1,0.7671970999945188,None,3.759315762425275,774.3010085000133,774.3143234000017,778.070869800009,778.0474633000122,,,,,12344,001,2025-03-14_16h33.19.665,pleaseworkstroopcontrol,2024.2.4,59.917984262928364,2025-03-14 16h33.38.145923 -0700,
test,inconsistent,15,yellow,red,word,z,800,2000,171,53,2,z,1,0.8335322999919299,None,2,53,171,14,778.070869800009,,,,,,,,,778.0666656000103,778.070869800009,778.070869800009,0.019198299996787682,778.2630181000131,778.2630181000131,778.9147881000099,z,1,0.8335322999919299,None,2.008465327396716,778.9154079,778.9295344000129,780.9348624000122,780.9131443000078,,,,,12344,001,2025-03-14_16h33.19.665,pleaseworkstroopcontrol,2024.2.4,59.917984262928364,2025-03-14 16h33.38.145923 -0700,
test,inconsistent,58,yellow,red,word,z,800,2000,172,54,2,z,1,0.7365855999960331,None,2,54,172,57,780.9348624000122,,,,,,,,,780.9287820000027,780.9348624000122,780.9348624000122,0.015597300007357262,781.1287447000068,781.1287447000068,781.6801570000098,z,1,0.7365855999960331,None,3.3240880823625805,781.6805694000068,781.6954344000114,785.0216666000051,784.9950455000071,,,,,12344,001,2025-03-14_16h33.19.665,pleaseworkstroopcontrol,2024.2.4,59.917984262928364,2025-03-14 16h33.38.145923 -0700,
test,inconsistent,59,yellow,green,word,z,800,2000,173,55,2,z,1,0.6616356000013184,None,2,55,173,58,785.0216666000051,,,,,,,,,785.017763900003,785.0216666000051,785.0216666000051,0.0226632999983849,785.2105476000143,785.2105476000143,785.6957309000136,z,1,0.6616356000013184,None,2.6168092951830544,785.6964491000108,785.7103910000005,788.3517594000004,788.3102913000039,,,,,12344,001,2025-03-14_16h33.19.665,pleaseworkstroopcontrol,2024.2.4,59.917984262928364,2025-03-14 16h33.38.145923 -0700,
test,inconsistent,13,purple,red,word,z,800,2000,174,56,2,z,1,0.9866002000053413,None,2,56,174,12,788.3517594000004,,,,,,,,,788.3468386000022,788.3517594000004,788.3517594000004,0.03643829999782611,788.5261175000051,788.5261175000051,789.3443359000084,z,1,0.9866002000053413,None,3.3442365221556476,789.3449123000028,789.359783900014,792.7188918000029,792.6757689000078,,,,,12344,001,2025-03-14_16h33.19.665,pleaseworkstroopcontrol,2024.2.4,59.917984262928364,2025-03-14 16h33.38.145923 -0700,
test,consistent,40,yellow,yellow,word,m,800,2000,175,57,2,m,1,1.0272450000047684,None,2,57,175,39,792.7188918000029,,,,,,,,,792.7139274000074,792.7188918000029,792.7188918000029,0.03808719999506138,792.8912365000142,792.8912365000142,793.7596735000116,m,1,1.0272450000047684,None,1.7079534568522443,793.7602897000033,793.7745480000012,795.5040843000024,795.4588194000098,,,,,12344,001,2025-03-14_16h33.19.665,pleaseworkstroopcontrol,2024.2.4,59.917984262928364,2025-03-14 16h33.38.145923 -0700,
test,inconsistent,37,red,green,word,z,800,2000,176,58,2,z,1,0.6245399999897927,None,2,58,176,36,795.5040843000024,,,,,,,,,795.4982702000125,795.5040843000024,795.5040843000024,0.03927110000222456,795.6738412000122,795.6738412000122,796.1419550999999,z,1,0.6245399999897927,None,5.013732316376968,796.1423147000023,796.1568442000134,801.1816129000072,801.1556811000046,,,,,12344,001,2025-03-14_16h33.19.665,pleaseworkstroopcontrol,2024.2.4,59.917984262928364,2025-03-14 16h33.38.145923 -0700,
test,consistent,46,yellow,yellow,word,m,800,2000,177,0,3,m,1,0.6204303999984404,None,3,0,177,45,801.1816129000072,,,,,,,,,801.1765227000142,801.1816129000072,801.1816129000072,0.020828299995628186,801.3717434999999,801.3717434999999,801.8060028000036,m,1,0.6204303999984404,None,2.2874341744028266,801.8063803000114,801.8216979000135,804.1159012000135,804.0882361000113,,,,,12344,001,2025-03-14_16h33.19.665,pleaseworkstroopcontrol,2024.2.4,59.917984262928364,2025-03-14 16h33.38.145923 -0700,
test,inconsistent,32,orange,green,word,z,800,2000,178,1,3,z,1,0.6617943000019295,None,3,1,178,31,804.1159012000135,,,,,,,,,804.1107883000077,804.1159012000135,804.1159012000135,0.022628899998380803,804.2876395000058,804.2876395000058,804.7883827000041,z,1,0.6617943000019295,None,5.131110459555964,804.7887455000018,804.8041109000042,809.9319750000141,809.9031010000035,,,,,12344,001,2025-03-14_16h33.19.665,pleaseworkstroopcontrol,2024.2.4,59.917984262928364,2025-03-14 16h33.38.145923 -0700,
test,consistent,49,yellow,yellow,word,m,800,2000,179,2,3,m,1,0.6897278000105871,None,3,2,179,48,809.9319750000141,,,,,,,,,809.9267896000092,809.9319750000141,809.9319750000141,0.023739399999612942,810.1187335000141,810.1187335000141,810.636585900007,m,1,0.6897278000105871,None,4.532123148262055,810.637014500011,810.652107700007,815.2033859000076,815.1677192000061,,,,,12344,001,2025-03-14_16h33.19.665,pleaseworkstroopcontrol,2024.2.4,59.917984262928364,2025-03-14 16h33.38.145923 -0700,
test,inconsistent,42,green,yellow,word,z,800,2000,180,3,3,z,1,0.7097522000112804,None,3,3,180,41,815.2033859000076,,,,,,,,,815.1976644000097,815.2033859000076,815.2033859000076,0.02994829999806825,815.3669957000093,815.3669957000093,815.9188676000049,z,1,0.7097522000112804,None,1.7120747120899373,815.9194033000094,815.9334129000054,817.653417700014,817.6174115000031,,,,,12344,001,2025-03-14_16h33.19.665,pleaseworkstroopcontrol,2024.2.4,59.917984262928364,2025-03-14 16h33.38.145923 -0700,
test,inconsistent,17,yellow,green,word,z,800,2000,181,4,3,z,1,1.0365595999901416,None,3,4,181,16,817.653417700014,,,,,,,,,817.647058100003,817.653417700014,817.653417700014,0.029621099994983524,817.832590200007,817.832590200007,818.7022292000038,z,1,1.0365595999901416,None,1.0804574457292506,818.7029491000139,818.7157920000027,819.8298383000074,819.7829846000095,,,,,12344,001,2025-03-14_16h33.19.665,pleaseworkstroopcontrol,2024.2.4,59.917984262928364,2025-03-14 16h33.38.145923 -0700,
test,inconsistent,24,blue,green,word,z,800,2000,182,5,3,z,1,0.7074524999916321,None,3,5,182,23,819.8298383000074,,,,,,,,,819.8237377000041,819.8298383000074,819.8298383000074,0.04069549999258015,819.9985616000049,819.9985616000049,820.5506808000064,z,1,0.7074524999916321,None,4.722288121287978,820.5512798000127,820.565336300002,825.2968331000011,825.2644375000091,,,,,12344,001,2025-03-14_16h33.19.665,pleaseworkstroopcontrol,2024.2.4,59.917984262928364,2025-03-14 16h33.38.145923 -0700,
test,inconsistent,53,red,yellow,word,z,800,2000,183,6,3,z,1,1.254606500006048,None,3,6,183,52,825.2968331000011,,,,,,,,,825.2908271000051,825.2968331000011,825.2968331000011,0.02636079999501817,825.4803207000077,825.4803207000077,826.5650330000062,z,1,1.254606500006048,None,4.050521683331779,826.5656203000108,826.5795615000097,830.6514704000001,830.6126925999997,,,,,12344,001,2025-03-14_16h33.19.665,pleaseworkstroopcontrol,2024.2.4,59.917984262928364,2025-03-14 16h33.38.145923 -0700,
test,consistent,28,yellow,yellow,word,m,800,2000,184,7,3,m,1,0.6210160999908112,None,3,7,184,27,830.6514704000001,,,,,,,,,830.6465405000054,830.6514704000001,830.6514704000001,0.03378379999776371,830.8282808000076,830.8282808000076,831.279972400007,m,1,0.6210160999908112,None,2.149270891742167,831.280565500012,831.2947082000028,833.4556634000037,833.428178800008,,,,,12344,001,2025-03-14_16h33.19.665,pleaseworkstroopcontrol,2024.2.4,59.917984262928364,2025-03-14 16h33.38.145923 -0700,
test,inconsistent,31,yellow,red,word,z,800,2000,185,8,3,z,1,0.7121230000047944,None,3,8,185,30,833.4556634000037,,,,,,,,,833.4517126000137,833.4556634000037,833.4556634000037,0.023562599992146716,833.6440538000024,833.6440538000024,834.1784177000081,z,1,0.7121230000047944,None,5.610471598374915,834.178797200002,834.1943850000098,839.818307700014,839.7763609000103,,,,,12344,001,2025-03-14_16h33.19.665,pleaseworkstroopcontrol,2024.2.4,59.917984262928364,2025-03-14 16h33.38.145923 -0700,
test,consistent,47,blue,blue,word,m,800,2000,186,9,3,m,1,0.6546094000077574,None,3,9,186,46,839.818307700014,,,,,,,,,839.8123007000104,839.818307700014,839.818307700014,0.035857900002156384,839.9917765000137,839.9917765000137,840.4759852000134,m,1,0.6546094000077574,None,4.978390074085736,840.4763643000042,840.4920208000112,845.477149600003,845.44132730001,,,,,12344,001,2025-03-14_16h33.19.665,pleaseworkstroopcontrol,2024.2.4,59.917984262928364,2025-03-14 16h33.38.145923 -0700,
test,inconsistent,37,red,green,word,z,800,2000,187,10,3,z,1,0.728528899999219,None,3,10,187,36,845.477149600003,,,,,,,,,845.4710580000101,845.477149600003,845.477149600003,0.029868700003135018,845.6577684000076,845.6577684000076,846.2088027000136,z,1,0.728528899999219,None,5.428057048308767,846.209428800008,846.2229068000015,851.6563741000136,851.6217066000099,,,,,12344,001,2025-03-14_16h33.19.665,pleaseworkstroopcontrol,2024.2.4,59.917984262928364,2025-03-14 16h33.38.145923 -0700,
test,inconsistent,50,yellow,green,word,z,800,2000,188,11,3,z,1,0.7926559000043198,None,3,11,188,49,851.6563741000136,,,,,,,,,851.6519680000056,851.6563741000136,851.6563741000136,0.030230899996240623,851.8210565000045,851.8210565000045,852.4555806000135,z,1,0.7926559000043198,None,1.4407417367628097,852.4562207000126,852.4712669,853.9258435000083,853.8878763000102,,,,,12344,001,2025-03-14_16h33.19.665,pleaseworkstroopcontrol,2024.2.4,59.917984262928364,2025-03-14 16h33.38.145923 -0700,
test,inconsistent,39,red,yellow,word,z,800,2000,189,12,3,z,1,0.872236300012446,None,3,12,189,38,853.9258435000083,,,,,,,,,853.9212990000087,853.9258435000083,853.9258435000083,0.03337789999204688,854.0869194000115,854.0869194000115,854.8051840000116,z,1,0.872236300012446,None,4.780278838943076,854.8056509000016,854.8200206000038,859.6146507000085,859.5690622000111,,,,,12344,001,2025-03-14_16h33.19.665,pleaseworkstroopcontrol,2024.2.4,59.917984262928364,2025-03-14 16h33.38.145923 -0700,
test,consistent,40,yellow,yellow,word,m,800,2000,190,13,3,m,1,0.7106547000003047,None,3,13,190,39,859.6146507000085,,,,,,,,,859.6065326000098,859.6146507000085,859.6146507000085,0.03846920000796672,859.7849726000131,859.7849726000131,860.3361836000113,m,1,0.7106547000003047,None,5.093948030571212,860.3365775000129,860.3518556000054,865.4542305000068,865.4172292000003,,,,,12344,001,2025-03-14_16h33.19.665,pleaseworkstroopcontrol,2024.2.4,59.917984262928364,2025-03-14 16h33.38.145923 -0700,
test,consistent,12,yellow,yellow,word,m,800,2000,191,14,3,m,1,1.269521199996234,None,3,14,191,11,865.4542305000068,,,,,,,,,865.4487227000063,865.4542305000068,865.4542305000068,0.03134940000018105,865.6331725000055,865.6331725000055,866.7352627000073,m,1,1.269521199996234,None,4.553912787110638,866.7356484000047,866.7496603000036,871.3155971000087,871.2819411000091,,,,,12344,001,2025-03-14_16h33.19.665,pleaseworkstroopcontrol,2024.2.4,59.917984262928364,2025-03-14 16h33.38.145923 -0700,
test,inconsistent,48,yellow,red,word,z,800,2000,192,15,3,z,1,0.968412400005036,None,3,15,192,47,871.3155971000087,,,,,,,,,871.3106572000106,871.3155971000087,871.3155971000087,0.028676899994025007,871.497683300011,871.497683300011,872.2998648000066,z,1,0.968412400005036,None,4.856444843625725,872.3004693000112,872.3139726000081,877.1834157000121,877.1467090000078,,,,,12344,001,2025-03-14_16h33.19.665,pleaseworkstroopcontrol,2024.2.4,59.917984262928364,2025-03-14 16h33.38.145923 -0700,
test,inconsistent,20,red,green,word,z,800,2000,193,16,3,z,1,0.6643958999920869,None,3,16,193,19,877.1834157000121,,,,,,,,,877.1773482999997,877.1834157000121,877.1834157000121,0.0306715000042459,877.3623556000093,877.3623556000093,877.864281400005,z,1,0.6643958999920869,None,5.901217039809399,877.8648836000066,877.8789907000028,883.8018538000033,883.7610165000078,,,,,12344,001,2025-03-14_16h33.19.665,pleaseworkstroopcontrol,2024.2.4,59.917984262928364,2025-03-14 16h33.38.145923 -0700,
test,inconsistent,8,black,yellow,word,z,800,2000,194,17,3,z,1,0.6259567000088282,None,3,17,194,7,883.8018538000033,,,,,,,,,883.7963939000037,883.8018538000033,883.8018538000033,0.035265200000139885,883.9600249000068,883.9600249000068,884.444376600004,z,1,0.6259567000088282,None,1.9518343668779465,884.4447654000105,884.4599533,886.4406696000078,886.3935837000026,,,,,12344,001,2025-03-14_16h33.19.665,pleaseworkstroopcontrol,2024.2.4,59.917984262928364,2025-03-14 16h33.38.145923 -0700,
test,inconsistent,29,green,blue,word,z,800,2000,195,18,3,z,1,0.9180195999942953,None,3,18,195,28,886.4406696000078,,,,,,,,,886.4339632000047,886.4406696000078,886.4406696000078,0.04034069999761414,886.6094234000047,886.6094234000047,887.3605728000111,z,1,0.9180195999942953,None,5.701629927595502,887.3610359000013,887.3757312000089,893.0934108000074,893.0585745000135,,,,,12344,001,2025-03-14_16h33.19.665,pleaseworkstroopcontrol,2024.2.4,59.917984262928364,2025-03-14 16h33.38.145923 -0700,
test,inconsistent,9,red,blue,word,z,800,2000,196,19,3,z,1,0.69078069999523,None,3,19,196,8,893.0934108000074,,,,,,,,,893.0878808000125,893.0934108000074,893.0934108000074,0.02913080000143964,893.2734372000123,893.2734372000123,893.7914743000001,z,1,0.69078069999523,None,4.591466609008378,893.7918602000136,893.8065454000025,898.4017878000013,898.3729118000047,,,,,12344,001,2025-03-14_16h33.19.665,pleaseworkstroopcontrol,2024.2.4,59.917984262928364,2025-03-14 16h33.38.145923 -0700,
test,consistent,18,red,red,word,m,800,2000,197,20,3,m,1,0.6708696999994572,None,3,20,197,17,898.4017878000013,,,,,,,,,898.3961439000122,898.4017878000013,898.4017878000013,0.02314620000834111,898.5889716000092,898.5889716000092,899.0894682000071,m,1,0.6708696999994572,None,4.847330297655729,899.0898545000091,899.1054323000135,903.9448321000091,903.9208883000101,,,,,12344,001,2025-03-14_16h33.19.665,pleaseworkstroopcontrol,2024.2.4,59.917984262928364,2025-03-14 16h33.38.145923 -0700,
test,consistent,51,red,red,word,m,800,2000,198,21,3,m,1,0.6184285999916028,None,3,21,198,50,903.9448321000091,,,,,,,,,903.9394993000024,903.9448321000091,903.9448321000091,0.018747299996903166,904.1367309000052,904.1367309000052,904.5719701000053,m,1,0.6184285999916028,None,2.1494834947789307,904.5723544000066,904.5863571000082,906.7551531000063,906.719915300011,,,,,12344,001,2025-03-14_16h33.19.665,pleaseworkstroopcontrol,2024.2.4,59.917984262928364,2025-03-14 16h33.38.145923 -0700,
test,inconsistent,56,green,red,word,z,800,2000,199,22,3,z,1,0.7550004000077024,None,3,22,199,55,906.7551531000063,,,,,,,,,906.7495456000033,906.7551531000063,906.7551531000063,0.029665900001418777,906.9356009000039,906.9356009000039,907.5214212000137,z,1,0.7550004000077024,None,2.0016501647154215,907.521999500008,907.5354926,909.5567722000123,909.5188544000121,,,,,12344,001,2025-03-14_16h33.19.665,pleaseworkstroopcontrol,2024.2.4,59.917984262928364,2025-03-14 16h33.38.145923 -0700,
