type,condition1,trialNo,stim1,textColor,stimFormat,key,ITI,presTime,thisN,thisTrialN,thisRepN,key_resp.keys,key_resp.corr,key_resp.rt,key_resp.duration,stroop.thisRepN,stroop.thisTrialN,stroop.thisN,stroop.thisIndex,thisRow.t,notes,welcome.started,text_welcome.started,press_space.started,welcome.stopped,press_space.keys,press_space.rt,press_space.duration,trial.started,key_resp.started,randomImage.started,randomImage.stopped,text_stroop.started,dot.started,text_stroop.stopped,trial.stopped,stroop.key_resp.keys,stroop.key_resp.corr,stroop.key_resp.rt,stroop.key_resp.duration,time_fixation,fixation.started,dot_fixation.started,dot_fixation.stopped,fixation.stopped,dot.stopped,thanks.started,thank_you.started,participant,session,date,expName,psychopyVersion,frameRate,expStart,
,,,,,,,,,,,,,,,,,,,,,,0.0028251000039745122,0.007312300003832206,0.007312300003832206,18.684169400003157,space,18.668070799991256,None,,,,,,,,,,,,,,,,,,,,,12345,001,2025-03-14_16h15.53.423,stroop,2024.2.4,59.97915124712551,2025-03-14 16h16.00.466284 -0700,
test,inconsistent,31,yellow,red,word,z,800,2000,0,0,0,z,1,1.6355825000064215,None,0,0,0,30,19.15594919999421,,,,,,,,,18.860000200002105,19.15594919999421,19.15594919999421,19.15594919999421,19.15594919999421,19.397497400001157,19.397497400001157,20.79742570000235,z,1,1.6355825000064215,None,3.004908034420473,20.79778670000087,20.813963399996283,24.43586480000522,23.796251799998572,,,,12345,001,2025-03-14_16h15.53.423,stroop,2024.2.4,59.97915124712551,2025-03-14 16h16.00.466284 -0700,
test,inconsistent,9,red,blue,word,z,800,2000,1,1,0,z,1,1.1692734999960521,None,0,1,1,8,24.43586480000522,,,,,,,,,24.220607299997937,24.43586480000522,24.43586480000522,24.43586480000522,24.43586480000522,24.495868900005007,24.495868900005007,25.612316400001873,z,1,1.1692734999960521,None,4.162035051178171,25.612697399992612,25.628732900004252,30.399031099994318,29.761170600002515,,,,12345,001,2025-03-14_16h15.53.423,stroop,2024.2.4,59.97915124712551,2025-03-14 16h16.00.466284 -0700,
test,consistent,12,yellow,yellow,word,m,800,2000,2,2,0,m,1,0.7031924000038998,None,0,2,2,11,30.399031099994318,,,,,,,,,30.0978163999971,30.399031099994318,30.399031099994318,30.399031099994318,30.399031099994318,30.46068030000606,30.46068030000606,31.110900800005766,m,1,0.7031924000038998,None,4.672035215833195,31.11126669999794,31.126927499994054,36.45845950000512,35.77603769999405,,,,12345,001,2025-03-14_16h15.53.423,stroop,2024.2.4,59.97915124712551,2025-03-14 16h16.00.466284 -0700,
test,inconsistent,2,yellow,green,word,z,800,2000,3,3,0,z,1,0.8102569000038784,None,0,3,3,1,36.45845950000512,,,,,,,,,36.15540639999381,36.45845950000512,36.45845950000512,36.45845950000512,36.45845950000512,36.4750958999939,36.4750958999939,37.275431000001845,z,1,0.8102569000038784,None,4.812678141443446,37.275755700000445,37.2915886999981,42.555658900004346,42.07330530000036,,,,12345,001,2025-03-14_16h15.53.423,stroop,2024.2.4,59.97915124712551,2025-03-14 16h16.00.466284 -0700,
test,inconsistent,15,yellow,red,word,z,800,2000,4,4,0,z,1,1.214437499991618,None,0,4,4,14,42.555658900004346,,,,,,,,,42.3997309999977,42.555658900004346,42.555658900004346,43.70474549999926,42.555658900004346,42.77330129999609,42.77330129999609,43.77307219999784,z,1,1.214437499991618,None,3.1780143461115524,43.77345219999552,43.789086699995096,47.66812010000285,46.939383100005216,,,,12345,001,2025-03-14_16h15.53.423,stroop,2024.2.4,59.97915124712551,2025-03-14 16h16.00.466284 -0700,
test,inconsistent,30,blue,red,word,z,800,2000,5,5,0,z,1,0.9100311000074726,None,0,5,5,29,47.66812010000285,,,,,,,,,47.372902699993574,47.66812010000285,47.66812010000285,47.66812010000285,47.66812010000285,47.670355900001596,47.670355900001596,48.58810350000567,z,1,0.9100311000074726,None,5.576529828486576,48.58844799999497,48.604289900002186,54.83912540000165,54.15248160000192,,,,12345,001,2025-03-14_16h15.53.423,stroop,2024.2.4,59.97915124712551,2025-03-14 16h16.00.466284 -0700,
test,inconsistent,42,green,yellow,word,z,800,2000,6,6,0,z,1,0.8526302999962354,None,0,6,6,41,54.83912540000165,,,,,,,,,54.54187620000448,54.83912540000165,54.83912540000165,54.83912540000165,54.83912540000165,54.84182040000451,54.84182040000451,55.70215420000022,z,1,0.8526302999962354,None,2.336726589180847,55.70253540000704,55.718427100000554,58.612389999994775,58.03441819999716,,,,12345,001,2025-03-14_16h15.53.423,stroop,2024.2.4,59.97915124712551,2025-03-14 16h16.00.466284 -0700,
test,inconsistent,59,yellow,green,word,z,800,2000,7,7,0,z,1,1.217107999997097,None,0,7,7,58,58.612389999994775,,,,,,,,,58.38938540000527,58.612389999994775,58.612389999994775,58.612389999994775,58.612389999994775,58.73411560000386,58.73411560000386,59.83454680000432,z,1,1.217107999997097,None,5.5119180528115965,59.83489779999945,59.85048389999429,65.65320000000065,65.33224089999567,,,,12345,001,2025-03-14_16h15.53.423,stroop,2024.2.4,59.97915124712551,2025-03-14 16h16.00.466284 -0700,
test,inconsistent,48,yellow,red,word,z,800,2000,8,8,0,z,1,0.7775943000015104,None,0,8,8,47,65.65320000000065,,,,,,,,,65.55108020000625,65.65320000000065,65.65320000000065,,65.65320000000065,66.03174760000547,66.03174760000547,66.43197340000188,z,1,0.7775943000015104,None,5.993319787773392,66.43238729999575,66.44799960000091,73.07470599999942,72.41296889999649,,,,12345,001,2025-03-14_16h15.53.423,stroop,2024.2.4,59.97915124712551,2025-03-14 16h16.00.466284 -0700,
test,inconsistent,14,yellow,blue,word,z,800,2000,9,9,0,z,1,1.0280844999942929,None,0,9,9,13,73.07470599999942,,,,,,,,,72.77186569999321,73.07470599999942,73.07470599999942,73.07470599999942,73.07470599999942,73.11260989999573,73.11260989999573,74.11263699999836,z,1,1.0280844999942929,None,2.723692729244068,74.1130528000067,74.12891109999327,77.65892260000692,76.82834900000307,,,,12345,001,2025-03-14_16h15.53.423,stroop,2024.2.4,59.97915124712551,2025-03-14 16h16.00.466284 -0700,
test,inconsistent,21,black,yellow,word,z,800,2000,10,10,0,z,1,0.6365016000054311,None,0,10,10,20,77.65892260000692,,,,,,,,,77.26270370000566,77.65892260000692,77.65892260000692,77.65892260000692,77.65892260000692,77.66128729999764,77.66128729999764,78.31131710000045,z,1,0.6365016000054311,None,3.5392071289540907,78.3117690999934,78.32769809999445,82.4754893000063,81.84329839999555,,,,12345,001,2025-03-14_16h15.53.423,stroop,2024.2.4,59.97915124712551,2025-03-14 16h16.00.466284 -0700,
test,consistent,47,blue,blue,word,m,800,2000,11,11,0,m,1,0.7457162000064272,None,0,11,11,46,82.4754893000063,,,,,,,,,82.23906669999997,82.4754893000063,82.4754893000063,82.4754893000063,82.4754893000063,82.5425963000016,82.5425963000016,83.22600619999866,m,1,0.7457162000064272,None,1.2680391862271376,83.22650380000414,83.24225310000475,85.01479689999542,84.49274980000337,,,,12345,001,2025-03-14_16h15.53.423,stroop,2024.2.4,59.97915124712551,2025-03-14 16h16.00.466284 -0700,
test,inconsistent,33,yellow,green,word,z,800,2000,12,12,0,z,1,0.7137199999997392,None,0,12,12,32,85.01479689999542,,,,,,,,,84.79541380000592,85.01479689999542,85.01479689999542,85.01479689999542,85.01479689999542,85.20847280000453,85.20847280000453,85.74172059999546,z,1,0.7137199999997392,None,4.52679320299497,85.74211589999322,85.75841619999846,90.86365670000669,90.25680459999421,,,,12345,001,2025-03-14_16h15.53.423,stroop,2024.2.4,59.97915124712551,2025-03-14 16h16.00.466284 -0700,
test,inconsistent,53,red,yellow,word,z,800,2000,13,13,0,z,1,1.0273942000058014,None,0,13,13,52,90.86365670000669,,,,,,,,,90.55851889999758,90.86365670000669,90.86365670000669,90.86365670000669,90.86365670000669,90.95618639999884,90.95618639999884,91.90649569999368,z,1,1.0273942000058014,None,2.22030767420289,91.90705429999798,91.92271440000331,94.59884380000585,94.12208840000676,,,,12345,001,2025-03-14_16h15.53.423,stroop,2024.2.4,59.97915124712551,2025-03-14 16h16.00.466284 -0700,
test,consistent,23,green,green,word,m,800,2000,14,14,0,m,1,0.7354351000103634,None,0,14,14,22,94.59884380000585,,,,,,,,,94.49912239999685,94.59884380000585,94.59884380000585,,94.59884380000585,94.82192479999503,94.82192479999503,95.33893870000611,m,1,0.7354351000103634,None,1.483090305698366,95.33930940000573,95.35506440000609,97.49587420000171,96.82232219999423,,,,12345,001,2025-03-14_16h15.53.423,stroop,2024.2.4,59.97915124712551,2025-03-14 16h16.00.466284 -0700,
test,consistent,28,yellow,yellow,word,m,800,2000,15,15,0,m,1,0.6782859999948414,None,0,15,15,27,97.49587420000171,,,,,,,,,97.19286019999709,97.49587420000171,97.49587420000171,97.49587420000171,97.49587420000171,97.53752060000261,97.53752060000261,98.18757979999646,m,1,0.6782859999948414,None,1.6812135481083015,98.1879670000053,98.2038801000017,100.52009289999842,99.85338210000191,,,,12345,001,2025-03-14_16h15.53.423,stroop,2024.2.4,59.97915124712551,2025-03-14 16h16.00.466284 -0700,
test,inconsistent,39,red,yellow,word,z,800,2000,16,16,0,z,1,0.8140160000039032,None,0,16,16,38,100.52009289999842,,,,,,,,,100.21893109999655,100.52009289999842,100.52009289999842,100.52009289999842,100.52009289999842,100.55305339999904,100.55305339999904,101.33650269999634,z,1,0.8140160000039032,None,1.8817549101230837,101.3369961999997,101.35317299999588,103.8591463000048,103.20222180000565,,,,12345,001,2025-03-14_16h15.53.423,stroop,2024.2.4,59.97915124712551,2025-03-14 16h16.00.466284 -0700,
test,consistent,49,yellow,yellow,word,m,800,2000,17,17,0,m,1,0.8005259999918053,None,0,17,17,48,103.8591463000048,,,,,,,,,103.61741510000138,103.8591463000048,103.8591463000048,103.8591463000048,103.8591463000048,103.90213499999663,103.90213499999663,104.66901110000617,m,1,0.8005259999918053,None,5.526586849155308,104.66934900000342,104.68532020000566,110.82921330000681,110.18317329999991,,,,12345,001,2025-03-14_16h15.53.423,stroop,2024.2.4,59.97915124712551,2025-03-14 16h16.00.466284 -0700,
test,consistent,51,red,red,word,m,800,2000,18,18,0,m,1,0.7069314000109443,None,0,18,18,50,110.82921330000681,,,,,,,,,110.5273448999942,110.82921330000681,110.82921330000681,110.82921330000681,110.82921330000681,110.88299339999503,110.88299339999503,111.55001679999987,m,1,0.7069314000109443,None,1.9727059581853692,111.55047800000466,111.56607859999349,114.08404990000417,113.51576629999909,,,,12345,001,2025-03-14_16h15.53.423,stroop,2024.2.4,59.97915124712551,2025-03-14 16h16.00.466284 -0700,
test,inconsistent,3,blue,red,word,z,800,2000,19,19,0,z,1,0.9051773999963189,None,0,19,19,2,114.08404990000417,,,,,,,,,113.85938540000643,114.08404990000417,114.08404990000417,114.08404990000417,114.08404990000417,114.2316029999929,114.2316029999929,114.99905420000141,z,1,0.9051773999963189,None,3.717791671946395,114.99941479999688,115.01480099999753,119.19022889999906,118.71410409999953,,,,12345,001,2025-03-14_16h15.53.423,stroop,2024.2.4,59.97915124712551,2025-03-14 16h16.00.466284 -0700,
test,inconsistent,13,purple,red,word,z,800,2000,20,20,0,z,1,0.8021831000078237,None,0,20,20,12,119.19022889999906,,,,,,,,,118.97091530000034,119.19022889999906,119.19022889999906,119.19022889999906,119.19022889999906,119.42982750000374,119.42982750000374,119.99688229999447,z,1,0.8021831000078237,None,5.027987130825355,119.99750480000512,120.01308770000469,126.23929460000363,125.01163360000646,,,,12345,001,2025-03-14_16h15.53.423,stroop,2024.2.4,59.97915124712551,2025-03-14 16h16.00.466284 -0700,
test,inconsistent,32,orange,green,word,z,800,2000,21,21,0,None,0,,,0,21,21,31,126.23929460000363,,,,,,,,,126.1007355000038,126.23929460000363,126.23929460000363,126.23929460000363,126.23929460000363,126.23929460000363,126.23929460000363,130.00979520000692,None,0,,,4.564537765343365,130.01018840000324,130.0263941000012,135.18978179999976,134.5583314999967,130.0263941000012,,,12345,001,2025-03-14_16h15.53.423,stroop,2024.2.4,59.97915124712551,2025-03-14 16h16.00.466284 -0700,
test,consistent,41,green,green,word,m,800,2000,22,22,0,m,1,0.7590513000031933,None,0,22,22,40,135.18978179999976,,,,,,,,,134.88845939999737,135.18978179999976,135.18978179999976,135.18978179999976,135.18978179999976,135.2580190000008,135.2580190000008,135.95857630000683,m,1,0.7590513000031933,None,5.020355286531997,135.9589696000039,135.97410029999446,141.57349769999564,140.97293509999872,,,,12345,001,2025-03-14_16h15.53.423,stroop,2024.2.4,59.97915124712551,2025-03-14 16h16.00.466284 -0700,
test,inconsistent,6,red,yellow,word,z,800,2000,23,23,0,z,1,0.7754438999982085,None,0,23,23,5,141.57349769999564,,,,,,,,,141.34775000000081,141.57349769999564,141.57349769999564,141.57349769999564,141.57349769999564,141.6724000999966,141.6724000999966,142.35558659999515,z,1,0.7754438999982085,None,2.287374461733666,142.3559746999963,142.37234580000222,145.17374919999565,144.6382947999955,,,,12345,001,2025-03-14_16h15.53.423,stroop,2024.2.4,59.97915124712551,2025-03-14 16h16.00.466284 -0700,
test,consistent,1,red,red,word,m,800,2000,24,24,0,m,1,0.5700921000097878,None,0,24,24,0,145.17374919999565,,,,,,,,,144.8716499000002,145.17374919999565,145.17374919999565,145.17374919999565,145.17374919999565,145.33761329999834,145.33761329999834,145.7546153000003,m,1,0.5700921000097878,None,4.0890294821960005,145.75518540000485,145.77080179999757,150.32823939999798,149.83634229999734,,,,12345,001,2025-03-14_16h15.53.423,stroop,2024.2.4,59.97915124712551,2025-03-14 16h16.00.466284 -0700,
test,consistent,46,yellow,yellow,word,m,800,2000,25,25,0,m,1,0.6783271999884164,None,0,25,25,45,150.32823939999798,,,,,,,,,150.22736809999333,150.32823939999798,150.32823939999798,,150.32823939999798,150.53670919999422,150.53670919999422,151.02012420000392,m,1,0.6783271999884164,None,3.397876029237594,151.020629000006,151.036202400006,155.07909939999809,154.40139509999426,,,,12345,001,2025-03-14_16h15.53.423,stroop,2024.2.4,59.97915124712551,2025-03-14 16h16.00.466284 -0700,
test,inconsistent,29,green,blue,word,z,800,2000,26,26,0,z,1,0.7567321999958949,None,0,26,26,28,155.07909939999809,,,,,,,,,154.7774977999943,155.07909939999809,155.07909939999809,155.07909939999809,155.07909939999809,155.10136000000057,155.10136000000057,155.85088119999273,z,1,0.7567321999958949,None,5.714428763559689,155.85126630000013,155.86736790000577,162.1171114000026,161.54892070000642,,,,12345,001,2025-03-14_16h15.53.423,stroop,2024.2.4,59.97915124712551,2025-03-14 16h16.00.466284 -0700,
test,consistent,18,red,red,word,m,800,2000,27,27,0,m,1,0.6443979000032414,None,0,27,27,17,162.1171114000026,,,,,,,,,161.94840989999648,162.1171114000026,162.1171114000026,162.1171114000026,162.1171114000026,162.24871379999968,162.24871379999968,162.76522729999851,m,1,0.6443979000032414,None,1.5840393617885642,162.76556660000642,162.78154189999623,164.72915060000378,164.34810370000196,,,,12345,001,2025-03-14_16h15.53.423,stroop,2024.2.4,59.97915124712551,2025-03-14 16h16.00.466284 -0700,
test,consistent,7,green,green,word,m,800,2000,28,28,0,m,1,0.6969167000061134,None,0,28,28,6,164.72915060000378,,,,,,,,,164.5889853999979,164.72915060000378,164.72915060000378,164.72915060000378,164.72915060000378,165.04799760000606,165.04799760000606,165.4311183999962,m,1,0.6969167000061134,None,5.687579974814584,165.4314588999987,165.44735729999957,171.637853799999,171.1127237000037,,,,12345,001,2025-03-14_16h15.53.423,stroop,2024.2.4,59.97915124712551,2025-03-14 16h16.00.466284 -0700,
test,inconsistent,52,red,green,word,z,800,2000,29,29,0,z,1,0.8612691000016639,None,0,29,29,51,171.637853799999,,,,,,,,,171.33500049999566,171.637853799999,171.637853799999,171.637853799999,171.637853799999,171.81183960000635,171.81183960000635,172.51188089999778,z,1,0.8612691000016639,None,3.122063466963802,172.5122188999958,172.52839409999433,176.0979709999956,175.62783650000347,,,,12345,001,2025-03-14_16h15.53.423,stroop,2024.2.4,59.97915124712551,2025-03-14 16h16.00.466284 -0700,
test,consistent,57,yellow,yellow,word,m,800,2000,30,30,0,m,1,0.6911866000009468,None,0,30,30,56,176.0979709999956,,,,,,,,,175.99633399999584,176.0979709999956,176.0979709999956,,176.0979709999956,176.32748550000542,176.32748550000542,176.79457060000277,m,1,0.6911866000009468,None,1.8105826415303319,176.79501640000672,176.8101003000047,179.04607300000498,178.59318789999816,,,,12345,001,2025-03-14_16h15.53.423,stroop,2024.2.4,59.97915124712551,2025-03-14 16h16.00.466284 -0700,
test,inconsistent,20,red,green,word,z,800,2000,31,31,0,z,1,0.9813439999998081,None,0,31,31,19,179.04607300000498,,,,,,,,,178.9041653000022,179.04607300000498,179.04607300000498,179.04607300000498,179.04607300000498,179.29272050000145,179.29272050000145,180.04345169999579,z,1,0.9813439999998081,None,3.6967785589144304,180.04381839999405,180.0589398000011,184.80922120000469,183.72511450000457,,,,12345,001,2025-03-14_16h15.53.423,stroop,2024.2.4,59.97915124712551,2025-03-14 16h16.00.466284 -0700,
test,inconsistent,10,green,yellow,word,z,800,2000,32,32,0,None,0,,,0,32,32,9,184.80922120000469,,,,,,,,,184.66898570000194,184.80922120000469,184.80922120000469,184.80922120000469,184.80922120000469,184.80922120000469,184.80922120000469,188.72321520000696,None,0,,,4.28062103014886,188.72356749999744,188.73951359999774,193.49816160000046,192.988440000001,188.73951359999774,,,12345,001,2025-03-14_16h15.53.423,stroop,2024.2.4,59.97915124712551,2025-03-14 16h16.00.466284 -0700,
test,consistent,34,green,green,word,m,800,2000,33,33,0,m,1,0.5545368000020972,None,0,33,33,33,193.49816160000046,,,,,,,,,193.19610279999324,193.49816160000046,193.49816160000046,193.49816160000046,193.49816160000046,193.68768639999325,193.68768639999325,194.05448449999676,m,1,0.5545368000020972,None,2.3023128007609417,194.05483049999748,194.07094409999263,196.87667050000164,196.3542247000005,,,,12345,001,2025-03-14_16h15.53.423,stroop,2024.2.4,59.97915124712551,2025-03-14 16h16.00.466284 -0700,
test,consistent,36,red,red,word,m,800,2000,34,34,0,m,1,1.0239753000059864,None,0,34,34,35,196.87667050000164,,,,,,,,,196.73510700000043,196.87667050000164,196.87667050000164,196.87667050000164,196.87667050000164,197.06980129999283,197.06980129999283,197.9032937000011,m,1,1.0239753000059864,None,3.389172227947545,197.90374779999547,197.91964290000033,201.79871050000656,201.2853705000016,,,,12345,001,2025-03-14_16h15.53.423,stroop,2024.2.4,59.97915124712551,2025-03-14 16h16.00.466284 -0700,
test,inconsistent,27,green,red,word,z,800,2000,35,35,0,z,1,0.7241964999993797,None,0,35,35,26,201.79871050000656,,,,,,,,,201.49745759999496,201.79871050000656,201.79871050000656,201.79871050000656,201.79871050000656,201.9849036999949,201.9849036999949,202.5352314000047,z,1,0.7241964999993797,None,1.290563299992403,202.53556370000297,202.55171719999635,204.3215785999928,203.81797780000488,,,,12345,001,2025-03-14_16h15.53.423,stroop,2024.2.4,59.97915124712551,2025-03-14 16h16.00.466284 -0700,
test,inconsistent,44,green,red,word,z,800,2000,36,36,0,z,1,0.641323799995007,None,0,36,36,43,204.3215785999928,,,,,,,,,204.2194129999989,204.3215785999928,204.3215785999928,,204.3215785999928,204.5176713999972,204.5176713999972,204.96808320000127,z,1,0.641323799995007,None,2.3558809084751777,204.96872950000397,204.98380980000366,207.8575681999937,207.31660499999998,,,,12345,001,2025-03-14_16h15.53.423,stroop,2024.2.4,59.97915124712551,2025-03-14 16h16.00.466284 -0700,
test,inconsistent,17,yellow,green,word,z,800,2000,37,37,0,z,1,0.8706558999983827,None,0,37,37,16,207.8575681999937,,,,,,,,,207.6311138000019,207.8575681999937,207.8575681999937,207.8575681999937,207.8575681999937,208.01646959999925,208.01646959999925,208.73285739999847,z,1,0.8706558999983827,None,5.614982820379413,208.7334966000053,208.74952260000282,215.16381329999422,214.3475904999941,,,,12345,001,2025-03-14_16h15.53.423,stroop,2024.2.4,59.97915124712551,2025-03-14 16h16.00.466284 -0700,
test,inconsistent,50,yellow,green,word,z,800,2000,38,38,0,z,1,1.053542199995718,None,0,38,38,49,215.16381329999422,,,,,,,,,214.94147609999345,215.16381329999422,215.16381329999422,215.16381329999422,215.16381329999422,215.1661568999989,215.1661568999989,216.23074280000583,z,1,1.053542199995718,None,1.0337591993516146,216.2311852999992,216.24667619999673,217.79644120000012,217.26351109999814,,,,12345,001,2025-03-14_16h15.53.423,stroop,2024.2.4,59.97915124712551,2025-03-14 16h16.00.466284 -0700,
test,inconsistent,22,red,yellow,word,z,800,2000,39,39,0,z,1,1.419530900006066,None,0,39,39,21,217.79644120000012,,,,,,,,,217.5686449000059,217.79644120000012,217.79644120000012,217.79644120000012,217.79644120000012,217.97933750000084,217.97933750000084,219.22926599999482,z,1,1.419530900006066,None,1.535974115090338,219.2296367999952,219.24563570000464,221.13359290000517,220.76181660000293,,,,12345,001,2025-03-14_16h15.53.423,stroop,2024.2.4,59.97915124712551,2025-03-14 16h16.00.466284 -0700,
test,inconsistent,37,red,green,word,z,800,2000,40,40,0,z,1,0.9727488000062294,None,0,40,40,36,221.13359290000517,,,,,,,,,220.99361249999492,221.13359290000517,221.13359290000517,221.13359290000517,221.13359290000517,221.46147320000455,221.46147320000455,222.11167670000577,z,1,0.9727488000062294,None,4.611705729864347,222.11219830000482,222.12842700000328,227.0603751000017,226.71011739999813,,,,12345,001,2025-03-14_16h15.53.423,stroop,2024.2.4,59.97915124712551,2025-03-14 16h16.00.466284 -0700,
test,inconsistent,58,yellow,red,word,z,800,2000,41,41,0,z,1,0.8742855000018608,None,0,41,41,57,227.0603751000017,,,,,,,,,226.9182853999955,227.0603751000017,227.0603751000017,227.0603751000017,227.0603751000017,227.40941399999429,227.40941399999429,227.9430216000037,z,1,0.8742855000018608,None,4.572101518317696,227.94356770000013,227.95940490000066,233.01250779999828,232.5085415999929,,,,12345,001,2025-03-14_16h15.53.423,stroop,2024.2.4,59.97915124712551,2025-03-14 16h16.00.466284 -0700,
test,consistent,38,blue,blue,word,m,800,2000,42,42,0,m,1,0.686215000008815,None,0,42,42,37,233.01250779999828,,,,,,,,,232.71098449999408,233.01250779999828,233.01250779999828,233.01250779999828,233.01250779999828,233.22478829999454,233.22478829999454,233.70782140000665,m,1,0.686215000008815,None,4.096035351922364,233.70815279999806,233.7238733999984,238.3910704000009,237.78959099999338,,,,12345,001,2025-03-14_16h15.53.423,stroop,2024.2.4,59.97915124712551,2025-03-14 16h16.00.466284 -0700,
test,inconsistent,16,red,green,word,z,800,2000,43,43,0,z,1,0.9040780999930575,None,0,43,43,15,238.3910704000009,,,,,,,,,238.15782700000273,238.3910704000009,238.3910704000009,238.3910704000009,238.3910704000009,238.48902930000622,238.48902930000622,239.30594950000523,z,1,0.9040780999930575,None,4.566593979937485,239.30627939999977,239.32203959999606,244.32190169999376,243.87055469999905,,,,12345,001,2025-03-14_16h15.53.423,stroop,2024.2.4,59.97915124712551,2025-03-14 16h16.00.466284 -0700,
test,consistent,35,red,red,word,m,800,2000,44,44,0,m,1,0.9913729000109015,None,0,44,44,34,244.32190169999376,,,,,,,,,244.21944770000118,244.32190169999376,244.32190169999376,245.52143059999798,244.32190169999376,244.57062820000283,244.57062820000283,245.51836469999398,m,1,0.9913729000109015,None,5.1659820657276585,245.51875679999648,245.52143059999798,251.3514234000031,250.66827999999805,,,,12345,001,2025-03-14_16h15.53.423,stroop,2024.2.4,59.97915124712551,2025-03-14 16h16.00.466284 -0700,
test,inconsistent,19,green,red,word,z,800,2000,45,45,0,z,1,0.9189612000045599,None,0,45,45,18,251.3514234000031,,,,,,,,,251.05141309999453,251.3514234000031,251.3514234000031,251.3514234000031,251.3514234000031,251.35363739999593,251.35363739999593,252.28581380000105,z,1,0.9189612000045599,None,3.653418210194574,252.2862090999988,252.30190960000618,256.7385041999951,255.93334249999316,,,,12345,001,2025-03-14_16h15.53.423,stroop,2024.2.4,59.97915124712551,2025-03-14 16h16.00.466284 -0700,
test,consistent,40,yellow,yellow,word,m,800,2000,46,46,0,m,1,0.6492864000028931,None,0,46,46,39,256.7385041999951,,,,,,,,,256.3384462999966,256.7385041999951,256.7385041999951,256.7385041999951,256.7385041999951,256.7414914999972,256.7414914999972,257.3993943999958,m,1,0.6492864000028931,None,4.520613707155678,257.39971280000464,257.41573269999935,262.70153619999473,261.9145622999931,,,,12345,001,2025-03-14_16h15.53.423,stroop,2024.2.4,59.97915124712551,2025-03-14 16h16.00.466284 -0700,
test,inconsistent,55,green,yellow,word,z,800,2000,47,47,0,z,1,0.7931219000020064,None,0,47,47,54,262.70153619999473,,,,,,,,,262.3972705000051,262.70153619999473,262.70153619999473,262.70153619999473,262.70153619999473,262.7038983999955,262.7038983999955,263.49735980000696,z,1,0.7931219000020064,None,4.394101069733509,263.4977186000033,263.5136930000008,268.52363799999875,267.87900329999684,,,,12345,001,2025-03-14_16h15.53.423,stroop,2024.2.4,59.97915124712551,2025-03-14 16h16.00.466284 -0700,
test,consistent,43,green,green,word,m,800,2000,48,48,0,m,1,0.6597130000009201,None,0,48,48,42,268.52363799999875,,,,,,,,,268.22100829999545,268.52363799999875,268.52363799999875,268.52363799999875,268.52363799999875,268.5791983999952,268.5791983999952,269.1954393000051,m,1,0.6597130000009201,None,2.591894569284173,269.1957822999975,269.21172740000475,272.4399573999981,271.77834069999517,,,,12345,001,2025-03-14_16h15.53.423,stroop,2024.2.4,59.97915124712551,2025-03-14 16h16.00.466284 -0700,
test,inconsistent,56,green,red,word,z,800,2000,49,49,0,z,1,0.7594787999987602,None,0,49,49,55,272.4399573999981,,,,,,,,,272.1391869999934,272.4399573999981,272.4399573999981,272.4399573999981,272.4399573999981,272.4941844999994,272.4941844999994,273.2105164999957,z,1,0.7594787999987602,None,3.9876941958876992,273.21083219999855,273.2269212999963,277.8758178999997,277.19267469999613,,,,12345,001,2025-03-14_16h15.53.423,stroop,2024.2.4,59.97915124712551,2025-03-14 16h16.00.466284 -0700,
test,inconsistent,25,red,blue,word,z,800,2000,50,50,0,z,1,0.8360574999969685,None,0,50,50,24,277.8758178999997,,,,,,,,,277.5752729999949,277.8758178999997,277.8758178999997,277.8758178999997,277.8758178999997,277.8790760999982,277.8790760999982,278.72539989999495,z,1,0.8360574999969685,None,2.1866920808547894,278.72578110000177,278.7419693999982,281.5733454000001,280.9078141999926,,,,12345,001,2025-03-14_16h15.53.423,stroop,2024.2.4,59.97915124712551,2025-03-14 16h16.00.466284 -0700,
test,consistent,54,green,green,word,m,800,2000,51,51,0,m,1,0.6653859000070952,None,0,51,51,53,281.5733454000001,,,,,,,,,281.26994840000407,281.5733454000001,281.5733454000001,281.5733454000001,281.5733454000001,281.60742119999486,281.60742119999486,282.24108019999403,m,1,0.6653859000070952,None,4.543082031103168,282.24142279999796,282.257193700003,287.2084213000053,286.7728713999968,,,,12345,001,2025-03-14_16h15.53.423,stroop,2024.2.4,59.97915124712551,2025-03-14 16h16.00.466284 -0700,
test,inconsistent,4,red,green,word,z,800,2000,52,52,0,z,1,0.7168067999882624,None,0,52,52,3,287.2084213000053,,,,,,,,,287.17379000000074,287.2084213000053,287.2084213000053,,287.2084213000053,287.47249859999283,287.47249859999283,287.9396318999934,z,1,0.7168067999882624,None,1.9256681602319423,287.9399831000046,287.95574710000074,290.3937078000017,289.854880400002,,,,12345,001,2025-03-14_16h15.53.423,stroop,2024.2.4,59.97915124712551,2025-03-14 16h16.00.466284 -0700,
test,inconsistent,8,black,yellow,word,z,800,2000,53,53,0,z,1,0.7229409999999916,None,0,53,53,7,290.3937078000017,,,,,,,,,290.09189110000443,290.3937078000017,290.3937078000017,290.3937078000017,290.3937078000017,290.55469150000135,290.55469150000135,291.12172219999775,z,1,0.7229409999999916,None,1.8003093462309985,291.1220650000032,291.13747659999353,295.85820519999834,292.9207705000008,,,,12345,001,2025-03-14_16h15.53.423,stroop,2024.2.4,59.97915124712551,2025-03-14 16h16.00.466284 -0700,
test,inconsistent,24,blue,green,word,z,800,2000,54,54,0,None,0,,,0,54,54,23,295.85820519999834,,,,,,,,,295.56421909999335,295.85820519999834,295.85820519999834,295.85820519999834,295.85820519999834,295.85820519999834,295.85820519999834,297.9187421999959,None,0,,,1.4489196367811,297.91916279999714,297.9351833999972,300.593366400004,299.3516246999934,297.9351833999972,,,12345,001,2025-03-14_16h15.53.423,stroop,2024.2.4,59.97915124712551,2025-03-14 16h16.00.466284 -0700,
test,inconsistent,26,green,yellow,word,z,800,2000,55,55,0,None,0,,,0,55,55,25,300.593366400004,,,,,,,,,300.36113069999556,300.593366400004,300.593366400004,300.593366400004,300.593366400004,300.593366400004,300.593366400004,304.35044789999665,None,0,,,1.0931700088997744,304.35078170000634,304.366603100003,305.83125829999335,305.4327504999965,304.366603100003,,,12345,001,2025-03-14_16h15.53.423,stroop,2024.2.4,59.97915124712551,2025-03-14 16h16.00.466284 -0700,
test,inconsistent,11,green,red,word,z,800,2000,56,56,0,z,1,0.845549799996661,None,0,56,56,10,305.83125829999335,,,,,,,,,305.729868800001,305.83125829999335,305.83125829999335,,305.83125829999335,306.1327178999927,306.1327178999927,306.68311139999423,z,1,0.845549799996661,None,2.192784852939513,306.6834763999941,306.6995314999949,309.54284150000603,308.8652232000022,,,,12345,001,2025-03-14_16h15.53.423,stroop,2024.2.4,59.97915124712551,2025-03-14 16h16.00.466284 -0700,
test,inconsistent,5,orange,blue,word,z,800,2000,57,57,0,z,1,0.6704707000026247,None,0,57,57,4,309.54284150000603,,,,,,,,,309.2426373000053,309.54284150000603,309.54284150000603,309.54284150000603,309.54284150000603,309.5645596999966,309.5645596999966,310.2144679000048,z,1,0.6704707000026247,None,4.892003565025876,310.2148326000024,310.23099619999994,315.6218630999938,315.0962228999997,,,,12345,001,2025-03-14_16h15.53.423,stroop,2024.2.4,59.97915124712551,2025-03-14 16h16.00.466284 -0700,
test,consistent,45,red,red,word,m,800,2000,58,58,0,m,1,0.7337104000034742,None,0,58,58,44,315.6218630999938,,,,,,,,,315.4820398000011,315.6218630999938,315.6218630999938,315.6218630999938,315.6218630999938,315.7958897000062,315.7958897000062,316.3633464000013,m,1,0.7337104000034742,None,1.5701624375259446,316.3640064999927,316.3800570000021,318.3209268000064,317.9288246000069,,,,12345,001,2025-03-14_16h15.53.423,stroop,2024.2.4,59.97915124712551,2025-03-14 16h16.00.466284 -0700,
test,consistent,1,red,red,word,m,800,2000,59,0,1,m,1,0.8000772999948822,None,1,0,59,0,318.3209268000064,,,,,,,,,318.15127329999814,318.3209268000064,318.3209268000064,318.3209268000064,318.3209268000064,318.6283309999999,318.6283309999999,319.12868409999646,m,1,0.8000772999948822,None,1.8311887603312602,319.1293300999969,319.14484779999475,321.49120800000674,320.94408990000375,,,,12345,001,2025-03-14_16h15.53.423,stroop,2024.2.4,59.97915124712551,2025-03-14 16h16.00.466284 -0700,
test,inconsistent,32,orange,green,word,z,800,2000,60,1,1,z,1,0.6336611000006087,None,1,1,60,31,321.49120800000674,,,,,,,,,321.18965220000246,321.49120800000674,321.49120800000674,321.49120800000674,321.49120800000674,321.6436743999948,321.6436743999948,322.12708150000253,z,1,0.6336611000006087,None,2.9241557373625424,322.12744860000385,322.1434215000045,325.6261258000013,325.0429682999966,,,,12345,001,2025-03-14_16h15.53.423,stroop,2024.2.4,59.97915124712551,2025-03-14 16h16.00.466284 -0700,
test,consistent,40,yellow,yellow,word,m,800,2000,61,2,1,m,1,0.5844978999957675,None,1,2,61,39,325.6261258000013,,,,,,,,,325.40219540000544,325.6261258000013,325.6261258000013,325.6261258000013,325.6261258000013,325.75908669999626,325.75908669999626,326.2259444999945,m,1,0.5844978999957675,None,4.248633831591862,326.22627319999447,326.24229690000357,330.98660329999984,330.4576322000066,,,,12345,001,2025-03-14_16h15.53.423,stroop,2024.2.4,59.97915124712551,2025-03-14 16h16.00.466284 -0700,
test,inconsistent,56,green,red,word,z,800,2000,62,3,1,z,1,0.7381053999997675,None,1,3,62,55,330.98660329999984,,,,,,,,,330.68475970000145,330.98660329999984,330.98660329999984,330.98660329999984,330.98660329999984,331.1574471000058,331.1574471000058,331.7412430999975,z,1,0.7381053999997675,None,4.765825008572001,331.7416325999948,331.75706560000253,337.1158810000052,336.5055982000049,,,,12345,001,2025-03-14_16h15.53.423,stroop,2024.2.4,59.97915124712551,2025-03-14 16h16.00.466284 -0700,
test,inconsistent,59,yellow,green,word,z,800,2000,63,4,1,z,1,0.6015756999986479,None,1,4,63,58,337.1158810000052,,,,,,,,,336.8151469000004,337.1158810000052,337.1158810000052,337.1158810000052,337.1158810000052,337.2051683000027,337.2051683000027,337.72193790000165,z,1,0.6015756999986479,None,2.9184283223931575,337.7223707999947,337.73813329999393,341.3522161000001,340.6374225000036,,,,12345,001,2025-03-14_16h15.53.423,stroop,2024.2.4,59.97915124712551,2025-03-14 16h16.00.466284 -0700,
test,inconsistent,44,green,red,word,z,800,2000,64,5,1,z,1,0.7842759000050137,None,1,5,64,43,341.3522161000001,,,,,,,,,341.0508459999983,341.3522161000001,341.3522161000001,341.3522161000001,341.3522161000001,341.35454369999934,341.35454369999934,342.13727479999943,z,1,0.7842759000050137,None,2.8255733700236245,342.13758830000006,342.1532664999977,345.37621030000446,344.9528216000035,,,,12345,001,2025-03-14_16h15.53.423,stroop,2024.2.4,59.97915124712551,2025-03-14 16h16.00.466284 -0700,
test,inconsistent,33,yellow,green,word,z,800,2000,65,6,1,z,1,0.8970085000037216,None,1,6,65,32,345.37621030000446,,,,,,,,,345.2758063999936,345.37621030000446,345.37621030000446,,345.37621030000446,345.65262419999635,345.65262419999635,346.2860495000059,z,1,0.8970085000037216,None,1.7943237871990194,346.2866006999975,346.3018452999968,348.6364723000006,348.06823269999586,,,,12345,001,2025-03-14_16h15.53.423,stroop,2024.2.4,59.97915124712551,2025-03-14 16h16.00.466284 -0700,
test,consistent,49,yellow,yellow,word,m,800,2000,66,7,1,m,1,0.5602027000131784,None,1,7,66,48,348.6364723000006,,,,,,,,,348.4003750999982,348.6364723000006,348.6364723000006,348.6364723000006,348.6364723000006,348.7679241000005,348.7679241000005,349.2012590999948,m,1,0.5602027000131784,None,2.5579331356855652,349.20162459999847,349.2176343000028,352.38017790000595,351.75095729999884,,,,12345,001,2025-03-14_16h15.53.423,stroop,2024.2.4,59.97915124712551,2025-03-14 16h16.00.466284 -0700,
test,consistent,18,red,red,word,m,800,2000,67,8,1,m,1,0.8652269000012893,None,1,8,67,17,352.38017790000595,,,,,,,,,352.0771908000024,352.38017790000595,352.38017790000595,352.38017790000595,352.38017790000595,352.4663500000024,352.4663500000024,353.2502821999951,m,1,0.8652269000012893,None,3.212652405354194,353.2507725000032,353.2662081000017,358.07509640000353,356.44857310000225,,,,12345,001,2025-03-14_16h15.53.423,stroop,2024.2.4,59.97915124712551,2025-03-14 16h16.00.466284 -0700,
test,inconsistent,55,green,yellow,word,z,800,2000,68,9,1,None,0,,,1,9,68,54,358.07509640000353,,,,,,,,,357.77363080000214,358.07509640000353,358.07509640000353,358.07509640000353,358.07509640000353,358.07509640000353,358.07509640000353,361.4471449999983,None,0,,,2.6823233156549193,361.4477160999959,361.4635159000027,364.58585020000464,364.1128924999939,361.4635159000027,,,12345,001,2025-03-14_16h15.53.423,stroop,2024.2.4,59.97915124712551,2025-03-14 16h16.00.466284 -0700,
test,inconsistent,11,green,red,word,z,800,2000,69,10,1,z,1,0.7128104000003077,None,1,10,69,10,364.58585020000464,,,,,,,,,364.41557110000576,364.58585020000464,364.58585020000464,364.58585020000464,364.58585020000464,364.8289616999973,364.8289616999973,365.3124674999999,z,1,0.7128104000003077,None,1.8129355272230676,365.3129145999992,365.32913169999665,367.7451707,367.11209860000235,,,,12345,001,2025-03-14_16h15.53.423,stroop,2024.2.4,59.97915124712551,2025-03-14 16h16.00.466284 -0700,
test,consistent,34,green,green,word,m,800,2000,70,11,1,m,1,0.6297174000064842,None,1,11,70,33,367.7451707,,,,,,,,,367.34109570000146,367.7451707,367.7451707,367.7451707,367.7451707,367.81133789999876,367.81133789999876,368.37847260000126,m,1,0.6297174000064842,None,1.3530900776519563,368.3788375000004,368.3945374000032,370.4860908999981,369.7276860999991,,,,12345,001,2025-03-14_16h15.53.423,stroop,2024.2.4,59.97915124712551,2025-03-14 16h16.00.466284 -0700,
test,inconsistent,17,yellow,green,word,z,800,2000,71,12,1,z,1,0.6644048000016483,None,1,12,71,16,370.4860908999981,,,,,,,,,370.183918499999,370.4860908999981,370.4860908999981,370.4860908999981,370.4860908999981,370.489281999995,370.489281999995,371.160278299998,z,1,0.6644048000016483,None,3.5153865954226533,371.1606594000041,371.177173899996,375.1112126999942,374.6591604999994,,,,12345,001,2025-03-14_16h15.53.423,stroop,2024.2.4,59.97915124712551,2025-03-14 16h16.00.466284 -0700,
test,inconsistent,53,red,yellow,word,z,800,2000,72,13,1,z,1,0.7884785999922315,None,1,13,72,52,375.1112126999942,,,,,,,,,375.04315840000345,375.1112126999942,375.1112126999942,,375.1112126999942,375.35911200000555,375.35911200000555,375.9096425000025,z,1,0.7884785999922315,None,2.2778382695520003,375.9109560999932,375.92600530000345,378.66757679999864,378.1748973999929,,,,12345,001,2025-03-14_16h15.53.423,stroop,2024.2.4,59.97915124712551,2025-03-14 16h16.00.466284 -0700,
test,inconsistent,48,yellow,red,word,z,800,2000,73,14,1,z,1,0.773351099996944,None,1,14,73,47,378.66757679999864,,,,,,,,,378.44804479999584,378.66757679999864,378.66757679999864,378.66757679999864,378.66757679999864,378.890936900003,378.890936900003,379.45747209999536,z,1,0.773351099996944,None,1.4969607107777123,379.4578470999986,379.4737926999951,381.5244062999991,380.94082839999464,,,,12345,001,2025-03-14_16h15.53.423,stroop,2024.2.4,59.97915124712551,2025-03-14 16h16.00.466284 -0700,
test,inconsistent,37,red,green,word,z,800,2000,74,15,1,z,1,1.2194587999983924,None,1,15,74,36,381.5244062999991,,,,,,,,,381.2214510000049,381.5244062999991,381.5244062999991,381.5244062999991,381.5244062999991,381.6565263999946,381.6565263999946,382.75654770000256,z,1,1.2194587999983924,None,5.294359070550241,382.7570246999967,382.77306999999564,388.68175930000143,388.0382111999934,,,,12345,001,2025-03-14_16h15.53.423,stroop,2024.2.4,59.97915124712551,2025-03-14 16h16.00.466284 -0700,
test,inconsistent,25,red,blue,word,z,800,2000,75,16,1,z,1,0.8162006999918958,None,1,16,75,24,388.68175930000143,,,,,,,,,388.38032229999953,388.68175930000143,388.68175930000143,388.68175930000143,388.68175930000143,388.7539065000019,388.7539065000019,389.50428219999594,z,1,0.8162006999918958,None,2.5317763498236543,389.50471259999904,389.5206593000039,392.9758942000044,392.02062979999755,,,,12345,001,2025-03-14_16h15.53.423,stroop,2024.2.4,59.97915124712551,2025-03-14 16h16.00.466284 -0700,
test,inconsistent,58,yellow,red,word,z,800,2000,76,17,1,z,1,0.8590566999919247,None,1,17,76,57,392.9758942000044,,,,,,,,,392.57396639999934,392.9758942000044,392.9758942000044,392.9758942000044,392.9758942000044,392.97837040000013,392.97837040000013,393.83581449999474,z,1,0.8590566999919247,None,3.900026120344639,393.836146200003,393.852151900006,398.44357679999666,397.7349630999961,,,,12345,001,2025-03-14_16h15.53.423,stroop,2024.2.4,59.97915124712551,2025-03-14 16h16.00.466284 -0700,
test,inconsistent,15,yellow,red,word,z,800,2000,77,18,1,z,1,0.7243680999963544,None,1,18,77,14,398.44357679999666,,,,,,,,,398.14075279999815,398.44357679999666,398.44357679999666,398.44357679999666,398.44357679999666,398.44588329999533,398.44588329999533,399.18454639999254,z,1,0.7243680999963544,None,4.8488485700250115,399.18492010000045,399.20083010000235,404.7086450000061,404.03231100000266,,,,12345,001,2025-03-14_16h15.53.423,stroop,2024.2.4,59.97915124712551,2025-03-14 16h16.00.466284 -0700,
test,inconsistent,20,red,green,word,z,800,2000,78,19,1,z,1,1.3556625999917742,None,1,19,78,19,404.7086450000061,,,,,,,,,404.4079216999962,404.7086450000061,404.7086450000061,404.7086450000061,404.7086450000061,404.74850079999305,404.74850079999305,406.0658017999958,z,1,1.3556625999917742,None,3.7634559507296292,406.0662331000058,406.0816017000034,410.36676020000596,409.81356219999725,,,,12345,001,2025-03-14_16h15.53.423,stroop,2024.2.4,59.97915124712551,2025-03-14 16h16.00.466284 -0700,
test,inconsistent,6,red,yellow,word,z,800,2000,79,20,1,z,1,0.8483607999951346,None,1,20,79,5,410.36676020000596,,,,,,,,,410.1436676000012,410.36676020000596,410.36676020000596,410.36676020000596,410.36676020000596,410.51349270000355,410.51349270000355,411.22972620000655,z,1,0.8483607999951346,None,3.5526680783359397,411.23012429999653,411.24617990000115,415.15393679999397,414.7789558999939,,,,12345,001,2025-03-14_16h15.53.423,stroop,2024.2.4,59.97915124712551,2025-03-14 16h16.00.466284 -0700,
test,consistent,47,blue,blue,word,m,800,2000,80,21,1,m,1,0.7000991000095382,None,1,21,80,46,415.15393679999397,,,,,,,,,415.0512885000062,415.15393679999397,415.15393679999397,,415.15393679999397,415.49562010000227,415.49562010000227,415.8620057999942,m,1,0.7000991000095382,None,1.8971443787513382,415.8624095999985,415.87801679999393,418.3871306999936,417.74410409999837,,,,12345,001,2025-03-14_16h15.53.423,stroop,2024.2.4,59.97915124712551,2025-03-14 16h16.00.466284 -0700,
test,consistent,57,yellow,yellow,word,m,800,2000,81,22,1,m,1,0.9533136999962153,None,1,22,81,56,418.3871306999936,,,,,,,,,418.08476090000477,418.3871306999936,418.3871306999936,418.3871306999936,418.3871306999936,418.44373719999567,418.44373719999567,419.34388119999494,m,1,0.9533136999962153,None,4.432215296928118,419.34426680000615,419.36021709999477,424.4237126999942,423.7601263999968,,,,12345,001,2025-03-14_16h15.53.423,stroop,2024.2.4,59.97915124712551,2025-03-14 16h16.00.466284 -0700,
test,inconsistent,29,green,blue,word,z,800,2000,82,23,1,z,1,0.7393443999899318,None,1,23,82,28,424.4237126999942,,,,,,,,,424.1224676999991,424.4237126999942,424.4237126999942,424.4237126999942,424.4237126999942,424.4753040000069,424.4753040000069,425.174992500004,z,1,0.7393443999899318,None,5.71906840636583,425.17532730000676,425.1914986000047,431.5566218000022,430.8896123000013,,,,12345,001,2025-03-14_16h15.53.423,stroop,2024.2.4,59.97915124712551,2025-03-14 16h16.00.466284 -0700,
test,inconsistent,9,red,blue,word,z,800,2000,83,24,1,z,1,1.0511545000044862,None,1,24,83,8,431.5566218000022,,,,,,,,,431.29438449999725,431.5566218000022,431.5566218000022,431.5566218000022,431.5566218000022,431.5894772000029,431.5894772000029,432.6224457000062,z,1,1.0511545000044862,None,4.670304300958922,432.6230324000062,432.6389810999972,437.9515881999978,437.28748189999897,,,,12345,001,2025-03-14_16h15.53.423,stroop,2024.2.4,59.97915124712551,2025-03-14 16h16.00.466284 -0700,
test,consistent,46,yellow,yellow,word,m,800,2000,84,25,1,m,1,0.7857557999959681,None,1,25,84,45,437.9515881999978,,,,,,,,,437.6530086999992,437.9515881999978,437.9515881999978,437.9515881999978,437.9515881999978,437.9874617000023,437.9874617000023,438.7546857999987,m,1,0.7857557999959681,None,5.901669114922708,438.7552746000001,438.7700610000029,445.23026100000425,444.65199830000347,,,,12345,001,2025-03-14_16h15.53.423,stroop,2024.2.4,59.97915124712551,2025-03-14 16h16.00.466284 -0700,
test,inconsistent,50,yellow,green,word,z,800,2000,85,26,1,z,1,1.1359779999911552,None,1,26,85,49,445.23026100000425,,,,,,,,,445.00688879999507,445.23026100000425,445.23026100000425,445.23026100000425,445.23026100000425,445.36796410000534,445.36796410000534,446.3679652999999,z,1,1.1359779999911552,None,3.9779544350900764,446.3683721999987,446.3845241999952,450.9538570000004,450.33361689999583,,,,12345,001,2025-03-14_16h15.53.423,stroop,2024.2.4,59.97915124712551,2025-03-14 16h16.00.466284 -0700,
test,inconsistent,19,green,red,word,z,800,2000,86,27,1,z,1,1.1565063999878475,None,1,27,86,18,450.9538570000004,,,,,,,,,450.6537773000018,450.9538570000004,450.9538570000004,450.9538570000004,450.9538570000004,451.03279029999976,451.03279029999976,452.11602899999707,z,1,1.1565063999878475,None,2.852955753002145,452.1163957999961,452.13262140000006,455.32675209999434,454.9654178000055,,,,12345,001,2025-03-14_16h15.53.423,stroop,2024.2.4,59.97915124712551,2025-03-14 16h16.00.466284 -0700,
test,inconsistent,24,blue,green,word,z,800,2000,87,28,1,z,1,0.826302499990561,None,1,28,87,23,455.32675209999434,,,,,,,,,455.29213109999546,455.32675209999434,455.32675209999434,,455.32675209999434,455.681889200001,455.681889200001,456.16571859999385,z,1,0.826302499990561,None,2.3519327922056057,456.1661591000011,456.18121399999654,458.9870697000006,458.51352160000533,,,,12345,001,2025-03-14_16h15.53.423,stroop,2024.2.4,59.97915124712551,2025-03-14 16h16.00.466284 -0700,
test,inconsistent,3,blue,red,word,z,800,2000,88,29,1,z,1,0.8884879999968689,None,1,29,88,2,458.9870697000006,,,,,,,,,458.7498054000025,458.9870697000006,458.9870697000006,458.9870697000006,458.9870697000006,459.2132438999979,459.2132438999979,459.8806468999974,z,1,0.8884879999968689,None,3.9356262725337,459.8810674999986,459.8967740999942,464.2662452999939,463.8119261999964,,,,12345,001,2025-03-14_16h15.53.423,stroop,2024.2.4,59.97915124712551,2025-03-14 16h16.00.466284 -0700,
test,consistent,23,green,green,word,m,800,2000,89,30,1,m,1,0.7732737000042107,None,1,30,89,22,464.2662452999939,,,,,,,,,464.12289379999856,464.2662452999939,464.2662452999939,464.2662452999939,464.2662452999939,464.51169200000004,464.51169200000004,465.04512789999717,m,1,0.7732737000042107,None,5.419500765888412,465.0454996000044,465.0611121999973,471.30577779999294,470.4595186999941,,,,12345,001,2025-03-14_16h15.53.423,stroop,2024.2.4,59.97915124712551,2025-03-14 16h16.00.466284 -0700,
test,consistent,12,yellow,yellow,word,m,800,2000,90,31,1,m,1,0.6462822000030428,None,1,31,90,11,471.30577779999294,,,,,,,,,471.13744200000656,471.30577779999294,471.30577779999294,471.30577779999294,471.30577779999294,471.30830220000644,471.30830220000644,471.95998379999946,m,1,0.6462822000030428,None,3.1130423842104595,471.9604435999936,471.97546230000444,475.9090056999994,475.0584952999925,,,,12345,001,2025-03-14_16h15.53.423,stroop,2024.2.4,59.97915124712551,2025-03-14 16h16.00.466284 -0700,
test,consistent,28,yellow,yellow,word,m,800,2000,91,32,1,None,0,,,1,32,91,27,475.9090056999994,,,,,,,,,475.7654099000065,475.9090056999994,475.9090056999994,475.9090056999994,475.9090056999994,475.9090056999994,475.9090056999994,480.05643599999894,None,0,,,2.254690873258074,480.0569397999934,480.07272539999394,482.68852049999987,482.30576859999564,480.07272539999394,,,12345,001,2025-03-14_16h15.53.423,stroop,2024.2.4,59.97915124712551,2025-03-14 16h16.00.466284 -0700,
test,inconsistent,27,green,red,word,z,800,2000,92,33,1,z,1,0.852005900000222,None,1,33,92,26,482.68852049999987,,,,,,,,,482.60321549999935,482.68852049999987,482.68852049999987,,482.68852049999987,483.00548409999465,483.00548409999465,483.5554454999947,z,1,0.852005900000222,None,4.989947136074909,483.55587009999726,483.5713304999954,489.11672330000147,488.5365818999999,,,,12345,001,2025-03-14_16h15.53.423,stroop,2024.2.4,59.97915124712551,2025-03-14 16h16.00.466284 -0700,
test,consistent,43,green,green,word,m,800,2000,93,34,1,m,1,0.6023475999973016,None,1,34,93,42,489.11672330000147,,,,,,,,,488.8151977999951,489.11672330000147,489.11672330000147,489.11672330000147,489.11672330000147,489.2371043000021,489.2371043000021,489.7195225000032,m,1,0.6023475999973016,None,5.177960389531162,489.7198780000035,489.7360170000029,495.54275160000543,494.8843543999974,,,,12345,001,2025-03-14_16h15.53.423,stroop,2024.2.4,59.97915124712551,2025-03-14 16h16.00.466284 -0700,
test,inconsistent,22,red,yellow,word,z,800,2000,94,35,1,z,1,2.298104700006661,None,1,35,94,21,495.54275160000543,,,,,,,,,495.3175656999956,495.54275160000543,495.54275160000543,495.54275160000543,495.54275160000543,495.5840704000002,495.5840704000002,497.8501552999951,z,1,2.298104700006661,None,4.311296218981814,497.85048809999716,497.86679859999276,502.6993150000053,502.1486395999964,,,,12345,001,2025-03-14_16h15.53.423,stroop,2024.2.4,59.97915124712551,2025-03-14 16h16.00.466284 -0700,
test,inconsistent,2,yellow,green,word,z,800,2000,95,36,1,z,1,1.172663300007116,None,1,36,95,1,502.6993150000053,,,,,,,,,502.3966272999969,502.6993150000053,502.6993150000053,502.6993150000053,502.6993150000053,502.8484177999926,502.8484177999926,503.8813572999934,z,1,1.172663300007116,None,1.2014048982200607,503.88169759999437,503.89770139999746,505.69446349999635,505.0810868999979,,,,12345,001,2025-03-14_16h15.53.423,stroop,2024.2.4,59.97915124712551,2025-03-14 16h16.00.466284 -0700,
test,inconsistent,13,purple,red,word,z,800,2000,96,37,1,z,1,1.1356062999984715,None,1,37,96,12,505.69446349999635,,,,,,,,,505.3957934999926,505.69446349999635,505.69446349999635,505.69446349999635,505.69446349999635,505.7818088000058,505.7818088000058,506.8306578000047,z,1,1.1356062999984715,None,5.598285236935862,506.83104509999976,506.84691799999564,512.8431130999961,512.4283447000053,,,,12345,001,2025-03-14_16h15.53.423,stroop,2024.2.4,59.97915124712551,2025-03-14 16h16.00.466284 -0700,
test,inconsistent,52,red,green,word,z,800,2000,97,38,1,z,1,0.877665199994226,None,1,38,97,51,512.8431130999961,,,,,,,,,512.7419705999928,512.8431130999961,512.8431130999961,,512.8431130999961,513.1285325000063,513.1285325000063,513.7283620999951,z,1,0.877665199994226,None,5.852814887526349,513.7287208000052,513.7443669000058,520.0806691000034,519.5766895999986,,,,12345,001,2025-03-14_16h15.53.423,stroop,2024.2.4,59.97915124712551,2025-03-14 16h16.00.466284 -0700,
test,inconsistent,26,green,yellow,word,z,800,2000,98,39,1,z,1,0.9924097000039183,None,1,39,98,25,520.0806691000034,,,,,,,,,519.9399606999941,520.0806691000034,520.0806691000034,520.0806691000034,520.0806691000034,520.2921162999992,520.2921162999992,521.0755537999939,z,1,0.9924097000039183,None,1.725858677022344,521.076070199997,521.0919404000015,523.3098574000032,522.7914765000023,,,,12345,001,2025-03-14_16h15.53.423,stroop,2024.2.4,59.97915124712551,2025-03-14 16h16.00.466284 -0700,
test,inconsistent,8,black,yellow,word,z,800,2000,99,40,1,z,1,0.7832078999927035,None,1,40,99,7,523.3098574000032,,,,,,,,,523.0086177000048,523.3098574000032,523.3098574000032,523.3098574000032,523.3098574000032,523.4912283000012,523.4912283000012,524.1077790999989,z,1,0.7832078999927035,None,2.803156495333634,524.1082019000023,524.1245502999955,527.466015900005,526.9068931999936,,,,12345,001,2025-03-14_16h15.53.423,stroop,2024.2.4,59.97915124712551,2025-03-14 16h16.00.466284 -0700,
test,inconsistent,14,yellow,blue,word,z,800,2000,100,41,1,z,1,0.807465100006084,None,1,41,100,13,527.466015900005,,,,,,,,,527.2453286999953,527.466015900005,527.466015900005,527.466015900005,527.466015900005,527.6063441000006,527.6063441000006,528.2902515000023,z,1,0.807465100006084,None,3.426236183804496,528.290825300006,528.3068324000051,532.1894449999963,531.7051308999944,,,,12345,001,2025-03-14_16h15.53.423,stroop,2024.2.4,59.97915124712551,2025-03-14 16h16.00.466284 -0700,
test,inconsistent,31,yellow,red,word,z,800,2000,101,42,1,z,1,0.6707433999981731,None,1,42,101,30,532.1894449999963,,,,,,,,,532.0181225999986,532.1894449999963,532.1894449999963,532.1894449999963,532.1894449999963,532.4045795999991,532.4045795999991,532.872208300003,z,1,0.6707433999981731,None,3.002578860639719,532.8725256000034,532.8879842000024,536.4388134000037,535.8703834000044,,,,12345,001,2025-03-14_16h15.53.423,stroop,2024.2.4,59.97915124712551,2025-03-14 16h16.00.466284 -0700,
test,inconsistent,16,red,green,word,z,800,2000,102,43,1,z,1,0.9010050000069896,None,1,43,102,15,536.4388134000037,,,,,,,,,536.1372184000065,536.4388134000037,536.4388134000037,536.4388134000037,536.4388134000037,536.5702960000053,536.5702960000053,537.3534152000066,z,1,0.9010050000069896,None,4.006287232040602,537.3538119000004,537.3699348999944,541.9009574999945,541.3518385000061,,,,12345,001,2025-03-14_16h15.53.423,stroop,2024.2.4,59.97915124712551,2025-03-14 16h16.00.466284 -0700,
test,consistent,45,red,red,word,m,800,2000,103,44,1,m,1,0.7233574999991106,None,1,44,103,44,541.9009574999945,,,,,,,,,541.7302976000065,541.9009574999945,541.9009574999945,541.9009574999945,541.9009574999945,542.068669500004,542.068669500004,542.6352118000068,m,1,0.7233574999991106,None,1.0561434050379335,542.6357328000013,542.6511680999974,544.0185210000054,543.6842612000037,,,,12345,001,2025-03-14_16h15.53.423,stroop,2024.2.4,59.97915124712551,2025-03-14 16h16.00.466284 -0700,
test,inconsistent,21,black,yellow,word,z,800,2000,104,45,1,z,1,0.6945779999950901,None,1,45,104,20,544.0185210000054,,,,,,,,,543.9187963000004,544.0185210000054,544.0185210000054,,544.0185210000054,544.3848066999926,544.3848066999926,544.7178746999998,z,1,0.6945779999950901,None,3.101034016741958,544.7183025999984,544.7337307999987,548.5310624999984,547.8163451,,,,12345,001,2025-03-14_16h15.53.423,stroop,2024.2.4,59.97915124712551,2025-03-14 16h16.00.466284 -0700,
test,consistent,54,green,green,word,m,800,2000,105,46,1,m,1,0.7045470000011846,None,1,46,105,53,548.5310624999984,,,,,,,,,548.227354600007,548.5310624999984,548.5310624999984,548.5310624999984,548.5310624999984,548.5334871999949,548.5334871999949,549.2493766999978,m,1,0.7045470000011846,None,4.927431494900745,549.2497119000036,549.2661208000063,554.6758571999962,554.1647983000003,,,,12345,001,2025-03-14_16h15.53.423,stroop,2024.2.4,59.97915124712551,2025-03-14 16h16.00.466284 -0700,
test,inconsistent,10,green,yellow,word,z,800,2000,106,47,1,z,1,0.9771791999955894,None,1,47,106,9,554.6758571999962,,,,,,,,,554.5334806000028,554.6758571999962,554.6758571999962,554.6758571999962,554.6758571999962,554.8808473999961,554.8808473999961,555.663664199994,z,1,0.9771791999955894,None,4.288765516770632,555.6639902000024,555.6806157999963,560.4604973999958,559.9455438000005,,,,12345,001,2025-03-14_16h15.53.423,stroop,2024.2.4,59.97915124712551,2025-03-14 16h16.00.466284 -0700,
test,consistent,41,green,green,word,m,800,2000,107,48,1,m,1,0.5963742000021739,None,1,48,107,40,560.4604973999958,,,,,,,,,560.1559533999971,560.4604973999958,560.4604973999958,560.4604973999958,560.4604973999958,560.6450557000062,560.6450557000062,561.0618054999941,m,1,0.5963742000021739,None,3.7512811247688056,561.0622869999934,561.0786260000023,565.4290856000007,564.8105137999955,,,,12345,001,2025-03-14_16h15.53.423,stroop,2024.2.4,59.97915124712551,2025-03-14 16h16.00.466284 -0700,
test,consistent,51,red,red,word,m,800,2000,108,49,1,m,1,0.6761067999905208,None,1,49,108,50,565.4290856000007,,,,,,,,,565.1286469000042,565.4290856000007,565.4290856000007,565.4290856000007,565.4290856000007,565.5099492000008,565.5099492000008,566.1103069999954,m,1,0.6761067999905208,None,1.388888704852256,566.1107083999959,566.1265524000046,568.1054705999995,567.4929875999951,,,,12345,001,2025-03-14_16h15.53.423,stroop,2024.2.4,59.97915124712551,2025-03-14 16h16.00.466284 -0700,
test,consistent,35,red,red,word,m,800,2000,109,50,1,m,1,0.5846003000042401,None,1,50,109,34,568.1054705999995,,,,,,,,,567.840869599997,568.1054705999995,568.1054705999995,568.1054705999995,568.1054705999995,568.1925813999987,568.1925813999987,568.6927022000018,m,1,0.5846003000042401,None,2.0216197935707854,568.6931224,568.7088941999973,571.2511590000067,570.7087347000052,,,,12345,001,2025-03-14_16h15.53.423,stroop,2024.2.4,59.97915124712551,2025-03-14 16h16.00.466284 -0700,
test,inconsistent,5,orange,blue,word,z,800,2000,110,51,1,z,1,0.8290694000024814,None,1,51,110,4,571.2511590000067,,,,,,,,,571.0296920999972,571.2511590000067,571.2511590000067,571.2511590000067,571.2511590000067,571.4245407999988,571.4245407999988,572.0914564999985,z,1,0.8290694000024814,None,4.248218980416624,572.0918837999925,572.1081954999972,576.7000299000065,576.323294700007,,,,12345,001,2025-03-14_16h15.53.423,stroop,2024.2.4,59.97915124712551,2025-03-14 16h16.00.466284 -0700,
test,consistent,36,red,red,word,m,800,2000,111,52,1,m,1,0.7016112000128487,None,1,52,111,35,576.7000299000065,,,,,,,,,576.5983106000058,576.7000299000065,576.7000299000065,,576.7000299000065,577.0231554000056,577.0231554000056,577.406702799999,m,1,0.7016112000128487,None,2.618969172240507,577.4071255000017,577.4225543999928,580.7065096000006,580.022258099998,,,,12345,001,2025-03-14_16h15.53.423,stroop,2024.2.4,59.97915124712551,2025-03-14 16h16.00.466284 -0700,
test,inconsistent,42,green,yellow,word,z,800,2000,112,53,1,z,1,0.8267141999967862,None,1,53,112,41,580.7065096000006,,,,,,,,,580.4069118000043,580.7065096000006,580.7065096000006,580.7065096000006,580.7065096000006,580.7090882000048,580.7090882000048,581.5387990000017,z,1,0.8267141999967862,None,4.0350284239973675,581.5392599000043,581.5546737999975,586.2373285000067,585.5701692000002,,,,12345,001,2025-03-14_16h15.53.423,stroop,2024.2.4,59.97915124712551,2025-03-14 16h16.00.466284 -0700,
test,inconsistent,4,red,green,word,z,800,2000,113,54,1,z,1,0.7745445000036852,None,1,54,113,3,586.2373285000067,,,,,,,,,585.9339943999948,586.2373285000067,586.2373285000067,586.2373285000067,586.2373285000067,586.2696620000061,586.2696620000061,587.0197967999993,z,1,0.7745445000036852,None,1.5541985717469649,587.0201494999928,587.0359939000045,589.2408062000031,588.5694174999953,,,,12345,001,2025-03-14_16h15.53.423,stroop,2024.2.4,59.97915124712551,2025-03-14 16h16.00.466284 -0700,
test,inconsistent,30,blue,red,word,z,800,2000,114,55,1,z,1,0.9670117999921786,None,1,55,114,29,589.2408062000031,,,,,,,,,588.9402596,589.2408062000031,589.2408062000031,589.2408062000031,589.2408062000031,589.2851229999942,589.2851229999942,590.2184658000042,z,1,0.9670117999921786,None,5.414520140897109,590.218935500001,590.2349089000054,597.0478577000031,595.6167296000058,,,,12345,001,2025-03-14_16h15.53.423,stroop,2024.2.4,59.97915124712551,2025-03-14 16h16.00.466284 -0700,
test,consistent,38,blue,blue,word,m,800,2000,115,56,1,None,0,,,1,56,115,37,597.0478577000031,,,,,,,,,596.9451810000028,597.0478577000031,597.0478577000031,600.0475223999965,597.0478577000031,597.0478577000031,597.0478577000031,600.614963,None,0,,,4.704837143466818,600.6153482999944,600.6314741999959,605.9752619999927,605.3138236999948,600.6314741999959,,,12345,001,2025-03-14_16h15.53.423,stroop,2024.2.4,59.97915124712551,2025-03-14 16h16.00.466284 -0700,
test,inconsistent,39,red,yellow,word,z,800,2000,116,57,1,z,1,1.971567500004312,None,1,57,116,38,605.9752619999927,,,,,,,,,605.6727460999973,605.9752619999927,605.9752619999927,605.9752619999927,605.9752619999927,606.0292816000001,606.0292816000001,607.9623782999988,z,1,1.971567500004312,None,2.479565429348884,607.9627886999951,607.9786435999995,610.9893286000006,610.4289647999976,,,,12345,001,2025-03-14_16h15.53.423,stroop,2024.2.4,59.97915124712551,2025-03-14 16h16.00.466284 -0700,
test,consistent,7,green,green,word,m,800,2000,117,58,1,m,1,0.7029429000103846,None,1,58,117,6,610.9893286000006,,,,,,,,,610.8207559000002,610.9893286000006,610.9893286000006,610.9893286000006,610.9893286000006,611.1442378999927,611.1442378999927,611.6945757000067,m,1,0.7029429000103846,None,2.702022898235679,611.6949463000055,611.7109365999931,615.0475319999969,614.3933867000014,,,,12345,001,2025-03-14_16h15.53.423,stroop,2024.2.4,59.97915124712551,2025-03-14 16h16.00.466284 -0700,
test,consistent,47,blue,blue,word,m,800,2000,118,0,2,m,1,1.1089074000046821,None,2,0,118,46,615.0475319999969,,,,,,,,,614.6459539000061,615.0475319999969,615.0475319999969,615.0475319999969,615.0475319999969,615.0932363000029,615.0932363000029,616.1595296000014,m,1,1.1089074000046821,None,3.1638205409935503,616.1599072999961,616.1760592000064,619.995133400007,619.3087402999954,,,,12345,001,2025-03-14_16h15.53.423,stroop,2024.2.4,59.97915124712551,2025-03-14 16h16.00.466284 -0700,
test,inconsistent,16,red,green,word,z,800,2000,119,1,2,z,1,1.2913537999993423,None,2,1,119,15,619.995133400007,,,,,,,,,619.7699367000023,619.995133400007,619.995133400007,619.995133400007,619.995133400007,619.9980058999936,619.9980058999936,621.2911687000014,z,1,1.2913537999993423,None,1.115341703347493,621.2915171000059,621.3075601000019,622.9323295000067,622.3908590000065,,,,12345,001,2025-03-14_16h15.53.423,stroop,2024.2.4,59.97915124712551,2025-03-14 16h16.00.466284 -0700,
test,inconsistent,58,yellow,red,word,z,800,2000,120,2,2,z,1,1.6465265000006184,None,2,2,120,57,622.9323295000067,,,,,,,,,622.6309551000013,622.9323295000067,622.9323295000067,622.9323295000067,622.9323295000067,623.0903357000061,623.0903357000061,624.5910900000017,z,1,1.6465265000006184,None,1.1037037918919221,624.5915182000026,624.6074988000037,626.356992800007,625.6898572999926,,,,12345,001,2025-03-14_16h15.53.423,stroop,2024.2.4,59.97915124712551,2025-03-14 16h16.00.466284 -0700,
test,inconsistent,6,red,yellow,word,z,800,2000,121,3,2,z,1,1.3911531000048853,None,2,3,121,5,626.356992800007,,,,,,,,,626.0555025999929,626.356992800007,626.356992800007,626.356992800007,626.356992800007,626.389030899998,626.389030899998,627.7560293999995,z,1,1.3911531000048853,None,2.6989021807909226,627.7565108999988,627.7737059999927,631.0099058000051,630.4546702999942,,,,12345,001,2025-03-14_16h15.53.423,stroop,2024.2.4,59.97915124712551,2025-03-14 16h16.00.466284 -0700,
test,inconsistent,39,red,yellow,word,z,800,2000,122,4,2,z,1,1.1121697000053246,None,2,4,122,38,631.0099058000051,,,,,,,,,630.7841844000068,631.0099058000051,631.0099058000051,631.0099058000051,631.0099058000051,631.1541690000013,631.1541690000013,632.1376177000056,z,1,1.1121697000053246,None,2.466589034015498,632.1380211000069,632.154652600002,635.2088402999943,634.603486699998,,,,12345,001,2025-03-14_16h15.53.423,stroop,2024.2.4,59.97915124712551,2025-03-14 16h16.00.466284 -0700,
test,consistent,38,blue,blue,word,m,800,2000,123,5,2,m,1,0.7433478000020841,None,2,5,123,37,635.2088402999943,,,,,,,,,634.9073758000013,635.2088402999943,635.2088402999943,635.2088402999943,635.2088402999943,635.3030130999978,635.3030130999978,635.9531218000047,m,1,0.7433478000020841,None,2.7356286312593117,635.9534598000027,635.9691137000045,639.3501032000058,638.6855905999982,,,,12345,001,2025-03-14_16h15.53.423,stroop,2024.2.4,59.97915124712551,2025-03-14 16h16.00.466284 -0700,
test,consistent,46,yellow,yellow,word,m,800,2000,124,6,2,m,1,0.6328251999948407,None,2,6,124,45,639.3501032000058,,,,,,,,,639.0456681999931,639.3501032000058,639.3501032000058,639.3501032000058,639.3501032000058,639.4014958000043,639.4014958000043,639.9846503000008,m,1,0.6328251999948407,None,1.385936392753627,639.9849947000039,640.0012018999987,641.7827872000053,641.3675722000044,,,,12345,001,2025-03-14_16h15.53.423,stroop,2024.2.4,59.97915124712551,2025-03-14 16h16.00.466284 -0700,
test,consistent,51,red,red,word,m,800,2000,125,7,2,m,1,0.7038737999973819,None,2,7,125,50,641.7827872000053,,,,,,,,,641.6829994,641.7827872000053,641.7827872000053,,641.7827872000053,642.0675355999992,642.0675355999992,642.5010872999992,m,1,0.7038737999973819,None,5.2790810711592595,642.501434299993,642.5168162000045,648.3434553999978,647.7656781999976,,,,12345,001,2025-03-14_16h15.53.423,stroop,2024.2.4,59.97915124712551,2025-03-14 16h16.00.466284 -0700,
test,inconsistent,17,yellow,green,word,z,800,2000,126,8,2,z,1,1.041180499989423,None,2,8,126,16,648.3434553999978,,,,,,,,,648.0816578999948,648.3434553999978,648.3434553999978,648.3434553999978,648.3434553999978,648.4651997000037,648.4651997000037,649.3992872999952,z,1,1.041180499989423,None,2.0624340795367986,649.3997703000059,649.4152696999954,652.0561729000037,651.4476742999977,,,,12345,001,2025-03-14_16h15.53.423,stroop,2024.2.4,59.97915124712551,2025-03-14 16h16.00.466284 -0700,
test,inconsistent,14,yellow,blue,word,z,800,2000,127,9,2,z,1,1.8267303999891737,None,2,9,127,13,652.0561729000037,,,,,,,,,651.7553767999925,652.0561729000037,652.0561729000037,652.0561729000037,652.0561729000037,652.1481052000017,652.1481052000017,653.8968702999991,z,1,1.8267303999891737,None,1.2645525565179567,653.8972609000048,653.9130319999967,655.7964759000024,655.1464184999932,,,,12345,001,2025-03-14_16h15.53.423,stroop,2024.2.4,59.97915124712551,2025-03-14 16h16.00.466284 -0700,
test,inconsistent,9,red,blue,word,z,800,2000,128,10,2,z,1,1.1375225000083447,None,2,10,128,8,655.7964759000024,,,,,,,,,655.4949294999969,655.7964759000024,655.7964759000024,655.7964759000024,655.7964759000024,655.8464355000033,655.8464355000033,656.945569500007,z,1,1.1375225000083447,None,5.681966389434998,656.9459385999944,656.962260500004,664.0052796999953,662.6274552999967,,,,12345,001,2025-03-14_16h15.53.423,stroop,2024.2.4,59.97915124712551,2025-03-14 16h16.00.466284 -0700,
test,inconsistent,37,red,green,word,z,800,2000,129,11,2,None,0,,,2,11,129,36,664.0052796999953,,,,,,,,,663.8359740000014,664.0052796999953,664.0052796999953,664.0052796999953,664.0052796999953,664.0052796999953,664.0052796999953,667.6257463999937,None,0,,,4.325657824891607,667.6261046,667.6415391000046,672.5860660000035,671.940426000001,667.6415391000046,,,12345,001,2025-03-14_16h15.53.423,stroop,2024.2.4,59.97915124712551,2025-03-14 16h16.00.466284 -0700,
test,inconsistent,50,yellow,green,word,z,800,2000,130,12,2,z,1,1.0050749000074575,None,2,12,130,49,672.5860660000035,,,,,,,,,672.1848079000047,672.5860660000035,672.5860660000035,672.5860660000035,672.5860660000035,672.639949400007,672.639949400007,673.6070233999926,z,1,1.0050749000074575,None,5.954137647272237,673.6075434999948,673.6227867999987,680.4291380000068,679.5546559000068,,,,12345,001,2025-03-14_16h15.53.423,stroop,2024.2.4,59.97915124712551,2025-03-14 16h16.00.466284 -0700,
test,consistent,7,green,green,word,m,800,2000,131,13,2,m,1,0.7198448999988614,None,2,13,131,6,680.4291380000068,,,,,,,,,680.0291473999969,680.4291380000068,680.4291380000068,680.4291380000068,680.4291380000068,680.4321686000039,680.4321686000039,681.1541048999934,m,1,0.7198448999988614,None,2.0291722778192565,681.1545252000069,681.1703099000006,683.9274613000016,683.1701769000065,,,,12345,001,2025-03-14_16h15.53.423,stroop,2024.2.4,59.97915124712551,2025-03-14 16h16.00.466284 -0700,
test,consistent,35,red,red,word,m,800,2000,132,14,2,m,1,0.8473919000098249,None,2,14,132,34,683.9274613000016,,,,,,,,,683.6248588000017,683.9274613000016,683.9274613000016,683.9274613000016,683.9274613000016,683.9302158000064,683.9302158000064,684.7864201000048,m,1,0.8473919000098249,None,3.245183376880802,684.7868847999925,684.8029133999953,688.4498620999948,688.0184985999949,,,,12345,001,2025-03-14_16h15.53.423,stroop,2024.2.4,59.97915124712551,2025-03-14 16h16.00.466284 -0700,
test,consistent,36,red,red,word,m,800,2000,133,15,2,m,1,0.6085637000069255,None,2,15,133,35,688.4498620999948,,,,,,,,,688.347374399993,688.4498620999948,688.4498620999948,,688.4498620999948,688.7181066000048,688.7181066000048,689.068483199997,m,1,0.6085637000069255,None,1.4849884057485339,689.0688663000037,689.084820899996,691.1378775000048,690.5508025000017,,,,12345,001,2025-03-14_16h15.53.423,stroop,2024.2.4,59.97915124712551,2025-03-14 16h16.00.466284 -0700,
test,consistent,43,green,green,word,m,800,2000,134,16,2,m,1,0.7659601000050316,None,2,16,134,42,691.1378775000048,,,,,,,,,690.8368128000002,691.1378775000048,691.1378775000048,691.1378775000048,691.1378775000048,691.2504253999941,691.2504253999941,691.9167925999936,m,1,0.7659601000050316,None,3.501533798652007,691.9172091999935,691.9334478999954,696.0453734000039,695.4155553000019,,,,12345,001,2025-03-14_16h15.53.423,stroop,2024.2.4,59.97915124712551,2025-03-14 16h16.00.466284 -0700,
test,consistent,54,green,green,word,m,800,2000,135,17,2,m,1,0.632735600011074,None,2,17,135,53,696.0453734000039,,,,,,,,,695.7418654000066,696.0453734000039,696.0453734000039,696.0453734000039,696.0453734000039,696.1150628000032,696.1150628000032,696.681885900005,m,1,0.632735600011074,None,3.186501386287622,696.6822159000003,696.6983551000012,700.4676340000005,699.8645525000029,,,,12345,001,2025-03-14_16h15.53.423,stroop,2024.2.4,59.97915124712551,2025-03-14 16h16.00.466284 -0700,
test,inconsistent,53,red,yellow,word,z,800,2000,136,18,2,z,1,0.6988738999934867,None,2,18,136,52,700.4676340000005,,,,,,,,,700.1664732000063,700.4676340000005,700.4676340000005,700.4676340000005,700.4676340000005,700.5803273000056,700.5803273000056,701.1802048999962,z,1,0.6988738999934867,None,5.152373646732567,701.1805376999982,701.1968144999992,706.9317581000068,706.3285389999946,,,,12345,001,2025-03-14_16h15.53.423,stroop,2024.2.4,59.97915124712551,2025-03-14 16h16.00.466284 -0700,
test,inconsistent,22,red,yellow,word,z,800,2000,137,19,2,z,1,1.6462793999962742,None,2,19,137,21,706.9317581000068,,,,,,,,,706.7047062000056,706.9317581000068,706.9317581000068,706.9317581000068,706.9317581000068,707.0279693000048,707.0279693000048,708.5944618999929,z,1,1.6462793999962742,None,4.444175089975262,708.5947937000019,708.6108442999976,714.2280907999957,713.0259946000006,,,,12345,001,2025-03-14_16h15.53.423,stroop,2024.2.4,59.97915124712551,2025-03-14 16h16.00.466284 -0700,
test,inconsistent,4,red,green,word,z,800,2000,138,20,2,None,0,,,2,20,138,3,714.2280907999957,,,,,,,,,713.921397099999,714.2280907999957,714.2280907999957,714.2280907999957,714.2280907999957,714.2280907999957,714.2280907999957,718.0091281000059,None,0,,,5.447435448889758,718.0095153000002,718.0246471999999,723.870141499996,723.456064900005,718.0246471999999,,,12345,001,2025-03-14_16h15.53.423,stroop,2024.2.4,59.97915124712551,2025-03-14 16h16.00.466284 -0700,
test,inconsistent,32,orange,green,word,z,800,2000,139,21,2,z,1,0.9628604999888921,None,2,21,139,31,723.870141499996,,,,,,,,,723.7707175999967,723.870141499996,723.870141499996,,723.870141499996,724.1558370999992,724.1558370999992,724.839476299996,z,1,0.9628604999888921,None,1.3870514950626518,724.8399245000037,724.8552977999934,726.8697573999962,726.2222894000006,,,,12345,001,2025-03-14_16h15.53.423,stroop,2024.2.4,59.97915124712551,2025-03-14 16h16.00.466284 -0700,
test,inconsistent,26,green,yellow,word,z,800,2000,140,22,2,z,1,0.832978100006585,None,2,22,140,25,726.8697573999962,,,,,,,,,726.5695610999974,726.8697573999962,726.8697573999962,726.8697573999962,726.8697573999962,726.9379585999995,726.9379585999995,727.704863299994,z,1,0.832978100006585,None,4.25650901696889,727.7053443000041,727.7212017999991,732.6116925999959,731.953036699997,,,,12345,001,2025-03-14_16h15.53.423,stroop,2024.2.4,59.97915124712551,2025-03-14 16h16.00.466284 -0700,
test,inconsistent,11,green,red,word,z,800,2000,141,23,2,z,1,0.7421026999945752,None,2,23,141,10,732.6116925999959,,,,,,,,,732.3080438000034,732.6116925999959,732.6116925999959,732.6116925999959,732.6116925999959,732.6525621000037,732.6525621000037,733.3693773999985,z,1,0.7421026999945752,None,1.8634794389242428,733.3698653000029,733.3856712999986,735.9545343000063,735.2200385000033,,,,12345,001,2025-03-14_16h15.53.423,stroop,2024.2.4,59.97915124712551,2025-03-14 16h16.00.466284 -0700,
test,inconsistent,2,yellow,green,word,z,800,2000,142,24,2,z,1,0.8483617000019876,None,2,24,142,1,735.9545343000063,,,,,,,,,735.6534180000017,735.9545343000063,735.9545343000063,735.9545343000063,735.9545343000063,735.9570493999927,735.9570493999927,736.8181831999973,z,1,0.8483617000019876,None,1.3904954650492132,736.8186330000026,736.8344510000024,738.8626223000028,738.2013645999978,,,,12345,001,2025-03-14_16h15.53.423,stroop,2024.2.4,59.97915124712551,2025-03-14 16h16.00.466284 -0700,
test,inconsistent,5,orange,blue,word,z,800,2000,143,25,2,z,1,0.7477152999927057,None,2,25,143,4,738.8626223000028,,,,,,,,,738.5626162999979,738.8626223000028,738.8626223000028,738.8626223000028,738.8626223000028,738.9004505000048,738.9004505000048,739.6172943999991,z,1,0.7477152999927057,None,5.795187624630784,739.6177521000063,739.6337466999976,745.9643907999998,745.3987971000024,,,,12345,001,2025-03-14_16h15.53.423,stroop,2024.2.4,59.97915124712551,2025-03-14 16h16.00.466284 -0700,
test,consistent,28,yellow,yellow,word,m,800,2000,144,26,2,m,1,1.0180010999902152,None,2,26,144,27,745.9643907999998,,,,,,,,,745.7292776999966,745.9643907999998,745.9643907999998,745.9643907999998,745.9643907999998,746.1147516000055,746.1147516000055,746.9981096999982,m,1,1.0180010999902152,None,1.5923856421434133,746.9984124000039,747.0143332000007,748.9774543999956,748.5808604000049,,,,12345,001,2025-03-14_16h15.53.423,stroop,2024.2.4,59.97915124712551,2025-03-14 16h16.00.466284 -0700,
test,inconsistent,27,green,red,word,z,800,2000,145,27,2,z,1,0.9590831999958027,None,2,27,145,26,748.9774543999956,,,,,,,,,748.8766831999965,748.9774543999956,748.9774543999956,,748.9774543999956,749.2806376999943,749.2806376999943,749.947700699995,z,1,0.9590831999958027,None,3.163523585615972,749.9481309999974,749.9634605000028,753.7545727999968,753.0957239999989,,,,12345,001,2025-03-14_16h15.53.423,stroop,2024.2.4,59.97915124712551,2025-03-14 16h16.00.466284 -0700,
test,inconsistent,10,green,yellow,word,z,800,2000,146,28,2,z,1,1.106182399991667,None,2,28,146,9,753.7545727999968,,,,,,,,,753.5841872000019,753.7545727999968,753.7545727999968,753.7545727999968,753.7545727999968,753.7953418999969,753.7953418999969,754.8621947000065,z,1,1.106182399991667,None,1.9866340851214206,754.8625882000051,754.8784057000012,757.4915784000041,756.844637400005,,,,12345,001,2025-03-14_16h15.53.423,stroop,2024.2.4,59.97915124712551,2025-03-14 16h16.00.466284 -0700,
test,inconsistent,21,black,yellow,word,z,800,2000,147,29,2,z,1,1.1810683000076097,None,2,29,147,20,757.4915784000041,,,,,,,,,757.0889276999951,757.4915784000041,757.4915784000041,757.4915784000041,757.4915784000041,757.5440306999953,757.5440306999953,758.6773055999947,z,1,1.1810683000076097,None,5.985532041981346,758.6776282999926,758.6939083000034,765.3466659999976,764.6584743999992,,,,12345,001,2025-03-14_16h15.53.423,stroop,2024.2.4,59.97915124712551,2025-03-14 16h16.00.466284 -0700,
test,inconsistent,48,yellow,red,word,z,800,2000,148,30,2,z,1,1.1929037000081735,None,2,30,148,47,765.3466659999976,,,,,,,,,765.086601300005,765.3466659999976,765.3466659999976,765.3466659999976,765.3466659999976,765.3492872000061,765.3492872000061,766.5411637999932,z,1,1.1929037000081735,None,5.864011030056176,766.5415558999957,766.5575287999964,775.0437627000065,772.3891460000013,,,,12345,001,2025-03-14_16h15.53.423,stroop,2024.2.4,59.97915124712551,2025-03-14 16h16.00.466284 -0700,
test,consistent,45,red,red,word,m,800,2000,149,31,2,z,0,0.9825073000101838,None,2,31,149,44,775.0437627000065,,,,,,,,,774.7431051000021,775.0437627000065,775.0437627000065,775.0437627000065,775.0437627000065,775.0437627000065,775.0437627000065,776.0382111999934,z,0,0.9825073000101838,None,1.8453526452437599,776.0386926000065,776.0544448,779.4259183999966,777.8706817000057,,,,12345,001,2025-03-14_16h15.53.423,stroop,2024.2.4,59.97915124712551,2025-03-14 16h16.00.466284 -0700,
test,consistent,40,yellow,yellow,word,m,800,2000,150,32,2,None,0,,,2,32,150,39,779.4259183999966,,,,,,,,,779.1270406999975,779.4259183999966,779.4259183999966,779.4259183999966,779.4259183999966,779.4259183999966,779.4259183999966,782.8690727999929,None,0,,,1.0714276015934168,782.8694275000016,782.8854406000028,784.5380428000062,783.9355406999966,782.8854406000028,,,12345,001,2025-03-14_16h15.53.423,stroop,2024.2.4,59.97915124712551,2025-03-14 16h16.00.466284 -0700,
test,inconsistent,25,red,blue,word,z,800,2000,151,33,2,z,1,1.0440779000055045,None,2,33,151,24,784.5380428000062,,,,,,,,,784.2365338999953,784.5380428000062,784.5380428000062,784.5380428000062,784.5380428000062,784.6349610000034,784.6349610000034,785.5850946999999,z,1,1.0440779000055045,None,5.811207546438841,785.5854304999957,785.6010572999949,791.9649659999995,791.3826058999985,,,,12345,001,2025-03-14_16h15.53.423,stroop,2024.2.4,59.97915124712551,2025-03-14 16h16.00.466284 -0700,
test,inconsistent,29,green,blue,word,z,800,2000,152,34,2,z,1,0.9841281999979401,None,2,34,152,28,791.9649659999995,,,,,,,,,791.7960989999992,791.9649659999995,791.9649659999995,791.9649659999995,791.9649659999995,792.0822570000018,792.0822570000018,792.9654605999967,z,1,0.9841281999979401,None,1.7430109893181887,792.9658102999965,792.9819681999943,795.1504475999973,794.6984125000017,,,,12345,001,2025-03-14_16h15.53.423,stroop,2024.2.4,59.97915124712551,2025-03-14 16h16.00.466284 -0700,
test,inconsistent,55,green,yellow,word,z,800,2000,153,35,2,z,1,0.9313475999952061,None,2,35,153,54,795.1504475999973,,,,,,,,,794.979090199995,795.1504475999973,795.1504475999973,795.1504475999973,795.1504475999973,795.4143692999933,795.4143692999933,796.0984032999986,z,1,0.9313475999952061,None,3.2004976292994227,796.0987347000046,796.1147250999929,799.7807899000036,799.2965913999942,,,,12345,001,2025-03-14_16h15.53.423,stroop,2024.2.4,59.97915124712551,2025-03-14 16h16.00.466284 -0700,
test,inconsistent,42,green,yellow,word,z,800,2000,154,36,2,z,1,0.8843699999997625,None,2,36,154,41,799.7807899000036,,,,,,,,,799.5441659000062,799.7807899000036,799.7807899000036,799.7807899000036,799.7807899000036,799.9961762000021,799.9961762000021,800.6793891999987,z,1,0.8843699999997625,None,3.2512353531573686,800.6797154999949,800.6961145999958,804.5458316000004,803.9295850000053,,,,12345,001,2025-03-14_16h15.53.423,stroop,2024.2.4,59.97915124712551,2025-03-14 16h16.00.466284 -0700,
test,inconsistent,3,blue,red,word,z,800,2000,155,37,2,z,1,0.7337947000050917,None,2,37,155,2,804.5458316000004,,,,,,,,,804.2452440000052,804.5458316000004,804.5458316000004,804.5458316000004,804.5458316000004,804.6443845000031,804.6443845000031,805.2952246000059,z,1,0.7337947000050917,None,2.48009638057145,805.2956763999973,805.3108931000024,808.1642687999993,807.7602789999946,,,,12345,001,2025-03-14_16h15.53.423,stroop,2024.2.4,59.97915124712551,2025-03-14 16h16.00.466284 -0700,
test,consistent,1,red,red,word,m,800,2000,156,38,2,m,1,0.9475661000033142,None,2,38,156,0,808.1642687999993,,,,,,,,,808.0637132999982,808.1642687999993,808.1642687999993,,808.1642687999993,808.4601916999964,808.4601916999964,809.127284400005,m,1,0.9475661000033142,None,3.4277529451535527,809.1276779000036,809.1430977999989,813.1031097999949,812.5421520999953,,,,12345,001,2025-03-14_16h15.53.423,stroop,2024.2.4,59.97915124712551,2025-03-14 16h16.00.466284 -0700,
test,inconsistent,33,yellow,green,word,z,800,2000,157,39,2,z,1,1.642060099999071,None,2,39,157,32,813.1031097999949,,,,,,,,,812.882163000002,813.1031097999949,813.1031097999949,813.1031097999949,813.1031097999949,813.2587882999942,813.2587882999942,814.7586004000041,z,1,1.642060099999071,None,2.7047093411759455,814.7590993000049,814.7743412999989,818.0996893999982,817.4578138999932,,,,12345,001,2025-03-14_16h15.53.423,stroop,2024.2.4,59.97915124712551,2025-03-14 16h16.00.466284 -0700,
test,consistent,23,green,green,word,m,800,2000,158,40,2,m,1,1.197901899999124,None,2,40,158,22,818.0996893999982,,,,,,,,,817.7986450000026,818.0996893999982,818.0996893999982,818.0996893999982,818.0996893999982,818.156685599999,818.156685599999,819.3068769999954,m,1,1.197901899999124,None,1.5420882956421442,819.3072786999983,819.3236172000034,821.5231848999974,820.8391809000022,,,,12345,001,2025-03-14_16h15.53.423,stroop,2024.2.4,59.97915124712551,2025-03-14 16h16.00.466284 -0700,
test,consistent,41,green,green,word,m,800,2000,159,41,2,m,1,0.7158074999897508,None,2,41,159,40,821.5231848999974,,,,,,,,,821.2191205999989,821.5231848999974,821.5231848999974,821.5231848999974,821.5231848999974,821.5256501999975,821.5256501999975,822.255799599996,m,1,0.7158074999897508,None,5.348423725912118,822.2561759999953,822.2718702999991,828.1901648000057,827.604038599995,,,,12345,001,2025-03-14_16h15.53.423,stroop,2024.2.4,59.97915124712551,2025-03-14 16h16.00.466284 -0700,
test,inconsistent,59,yellow,green,word,z,800,2000,160,42,2,z,1,0.7431763000058709,None,2,42,160,58,828.1901648000057,,,,,,,,,827.9715913999971,828.1901648000057,828.1901648000057,828.1901648000057,828.1901648000057,828.3199356999976,828.3199356999976,828.9365780999942,z,1,0.7431763000058709,None,2.0082415521642623,828.9368950000062,828.9527947000024,831.5347838000016,830.9359896999958,,,,12345,001,2025-03-14_16h15.53.423,stroop,2024.2.4,59.97915124712551,2025-03-14 16h16.00.466284 -0700,
test,inconsistent,52,red,green,word,z,800,2000,161,43,2,z,1,1.0059808999940287,None,2,43,161,51,831.5347838000016,,,,,,,,,831.2328512999957,831.5347838000016,831.5347838000016,831.5347838000016,831.5347838000016,831.6354012999946,831.6354012999946,832.5521828000055,z,1,1.0059808999940287,None,5.659262583509733,832.5526024999999,832.5687041000056,838.8026454999927,838.1997339999944,,,,12345,001,2025-03-14_16h15.53.423,stroop,2024.2.4,59.97915124712551,2025-03-14 16h16.00.466284 -0700,
test,consistent,12,yellow,yellow,word,m,800,2000,162,44,2,m,1,0.6348099000024376,None,2,44,162,11,838.8026454999927,,,,,,,,,838.5762206999934,838.8026454999927,838.8026454999927,838.8026454999927,838.8026454999927,838.899676800007,838.899676800007,839.449918600003,m,1,0.6348099000024376,None,3.969637090362136,839.4502623000008,839.4661739000003,843.9139802999998,843.4149546999979,,,,12345,001,2025-03-14_16h15.53.423,stroop,2024.2.4,59.97915124712551,2025-03-14 16h16.00.466284 -0700,
test,consistent,57,yellow,yellow,word,m,800,2000,163,45,2,m,1,0.6221398000052432,None,2,45,163,56,843.9139802999998,,,,,,,,,843.6769346999936,843.9139802999998,843.9139802999998,843.9139802999998,843.9139802999998,844.1147901999939,844.1147901999939,844.5478849999927,m,1,0.6221398000052432,None,1.0228255935651918,844.5482538000069,844.5648642000015,846.140574399993,845.5639943999995,,,,12345,001,2025-03-14_16h15.53.423,stroop,2024.2.4,59.97915124712551,2025-03-14 16h16.00.466284 -0700,
test,inconsistent,31,yellow,red,word,z,800,2000,164,46,2,z,1,0.9136549999966519,None,2,46,164,30,846.140574399993,,,,,,,,,845.8789608999941,846.140574399993,846.140574399993,846.140574399993,846.140574399993,846.2638114000001,846.2638114000001,847.0640280999942,z,1,0.9136549999966519,None,5.190439998043522,847.064360999997,847.0799638000026,852.8641774999996,852.2449336999998,,,,12345,001,2025-03-14_16h15.53.423,stroop,2024.2.4,59.97915124712551,2025-03-14 16h16.00.466284 -0700,
test,inconsistent,24,blue,green,word,z,800,2000,165,47,2,z,1,1.0821133999997983,None,2,47,165,23,852.8641774999996,,,,,,,,,852.5622398999985,852.8641774999996,852.8641774999996,852.8641774999996,852.8641774999996,852.9447583000001,852.9447583000001,853.9613056999951,z,1,1.0821133999997983,None,3.9929914173774232,853.9617056999996,853.9775590999925,858.4028513999947,857.943657900003,,,,12345,001,2025-03-14_16h15.53.423,stroop,2024.2.4,59.97915124712551,2025-03-14 16h16.00.466284 -0700,
test,consistent,49,yellow,yellow,word,m,800,2000,166,48,2,m,1,0.7825783000007505,None,2,48,166,48,858.4028513999947,,,,,,,,,858.3010577999958,858.4028513999947,858.4028513999947,,858.4028513999947,858.6438501999946,858.6438501999946,859.193823900001,m,1,0.7825783000007505,None,3.9817446186988894,859.1942153999989,859.209740899998,863.8223274000047,863.1745940999972,,,,12345,001,2025-03-14_16h15.53.423,stroop,2024.2.4,59.97915124712551,2025-03-14 16h16.00.466284 -0700,
test,inconsistent,44,green,red,word,z,800,2000,167,49,2,z,1,0.912730099997134,None,2,49,167,43,863.8223274000047,,,,,,,,,863.5218419000012,863.8223274000047,863.8223274000047,863.8223274000047,863.8223274000047,863.8739776000002,863.8739776000002,864.7409828999953,z,1,0.912730099997134,None,5.621016611919934,864.7414929999941,864.7574566999974,870.8115243000066,870.3556299000047,,,,12345,001,2025-03-14_16h15.53.423,stroop,2024.2.4,59.97915124712551,2025-03-14 16h16.00.466284 -0700,
test,inconsistent,56,green,red,word,z,800,2000,168,50,2,z,1,1.1393227000080515,None,2,50,168,55,870.8115243000066,,,,,,,,,870.6697454999958,870.8115243000066,870.8115243000066,870.8115243000066,870.8115243000066,871.0551790000027,871.0551790000027,871.9549990999949,z,1,1.1393227000080515,None,3.0455605485816832,871.9553692000045,871.9714130999928,875.5418003999948,874.9880745999981,,,,12345,001,2025-03-14_16h15.53.423,stroop,2024.2.4,59.97915124712551,2025-03-14 16h16.00.466284 -0700,
test,consistent,34,green,green,word,m,800,2000,169,51,2,m,1,0.7244002999941586,None,2,51,169,33,875.5418003999948,,,,,,,,,875.2398725999956,875.5418003999948,875.5418003999948,875.5418003999948,875.5418003999948,875.7036982999998,875.7036982999998,876.2712369999936,m,1,0.7244002999941586,None,4.6309924784406125,876.2717840999976,876.2867187999946,881.5684847999946,880.9019968000066,,,,12345,001,2025-03-14_16h15.53.423,stroop,2024.2.4,59.97915124712551,2025-03-14 16h16.00.466284 -0700,
test,inconsistent,8,black,yellow,word,z,800,2000,170,52,2,z,1,0.703345799993258,None,2,52,170,7,881.5684847999946,,,,,,,,,881.2662674000021,881.5684847999946,881.5684847999946,881.5684847999946,881.5684847999946,881.6015279999992,881.6015279999992,882.2862242999981,z,1,0.703345799993258,None,5.877091460558132,882.2868993000011,882.3013843999943,888.9050879999995,888.1495642999944,,,,12345,001,2025-03-14_16h15.53.423,stroop,2024.2.4,59.97915124712551,2025-03-14 16h16.00.466284 -0700,
test,inconsistent,13,purple,red,word,z,800,2000,171,53,2,z,1,0.7075683000002755,None,2,53,171,12,888.9050879999995,,,,,,,,,888.5044772999972,888.9050879999995,888.9050879999995,888.9050879999995,888.9050879999995,888.9072887999937,888.9072887999937,889.6157362999948,z,1,0.7075683000002755,None,2.8689252009131483,889.6162881000055,889.6319967000018,893.9688577000052,892.4813448000059,,,,12345,001,2025-03-14_16h15.53.423,stroop,2024.2.4,59.97915124712551,2025-03-14 16h16.00.466284 -0700,
test,inconsistent,20,red,green,word,z,800,2000,172,54,2,None,0,,,2,54,172,19,893.9688577000052,,,,,,,,,893.5702583999955,893.9688577000052,893.9688577000052,893.9688577000052,893.9688577000052,893.9688577000052,893.9688577000052,897.479450400002,None,0,,,2.1370778514100737,897.4798496000003,897.4960492999962,900.1215754000004,899.6123858000065,897.4960492999962,,,12345,001,2025-03-14_16h15.53.423,stroop,2024.2.4,59.97915124712551,2025-03-14 16h16.00.466284 -0700,
test,inconsistent,19,green,red,word,z,800,2000,173,55,2,z,1,0.8046377999999095,None,2,55,173,18,900.1215754000004,,,,,,,,,900.0601680999971,900.1215754000004,900.1215754000004,,900.1215754000004,900.311978800004,900.311978800004,900.928791600003,z,1,0.8046377999999095,None,3.782182177409396,900.9292138000019,900.9446585999976,905.1082428999944,904.7101812000037,,,,12345,001,2025-03-14_16h15.53.423,stroop,2024.2.4,59.97915124712551,2025-03-14 16h16.00.466284 -0700,
test,inconsistent,30,blue,red,word,z,800,2000,174,56,2,z,1,1.0466818000131752,None,2,56,174,29,905.1082428999944,,,,,,,,,904.967192600001,905.1082428999944,905.1082428999944,905.1082428999944,905.1082428999944,905.4098399000068,905.4098399000068,906.1602003000007,z,1,1.0466818000131752,None,3.8692764215537574,906.1606486999954,906.176209199999,910.5366676999984,910.0253323999932,,,,12345,001,2025-03-14_16h15.53.423,stroop,2024.2.4,59.97915124712551,2025-03-14 16h16.00.466284 -0700,
test,consistent,18,red,red,word,m,800,2000,175,57,2,m,1,0.8755633999971906,None,2,57,175,17,910.5366676999984,,,,,,,,,910.234935600005,910.5366676999984,910.5366676999984,910.5366676999984,910.5366676999984,910.7412738999992,910.7412738999992,911.4246989999956,m,1,0.8755633999971906,None,1.1178458640427031,911.4250688000029,911.4412404000032,913.0362648000009,912.5410809000023,,,,12345,001,2025-03-14_16h15.53.423,stroop,2024.2.4,59.97915124712551,2025-03-14 16h16.00.466284 -0700,
test,inconsistent,15,yellow,red,word,z,800,2000,176,58,2,z,1,0.7550083000096492,None,2,58,176,14,913.0362648000009,,,,,,,,,912.8655425000034,913.0362648000009,913.0362648000009,913.0362648000009,913.0362648000009,913.240636100003,913.240636100003,913.8075460999971,z,1,0.7550083000096492,None,3.214665145116916,913.8080566999997,913.8234457999934,917.5688613999955,917.0061851999926,,,,12345,001,2025-03-14_16h15.53.423,stroop,2024.2.4,59.97915124712551,2025-03-14 16h16.00.466284 -0700,
test,consistent,40,yellow,yellow,word,m,800,2000,177,0,3,m,1,0.7420045000035316,None,3,0,177,39,917.5688613999955,,,,,,,,,917.2640551999939,917.5688613999955,917.5688613999955,917.5688613999955,917.5688613999955,917.7058552999952,917.7058552999952,918.3225512000063,m,1,0.7420045000035316,None,2.2332965262219657,918.322980500001,918.3387638999993,921.1974918000051,920.5557778999937,,,,12345,001,2025-03-14_16h15.53.423,stroop,2024.2.4,59.97915124712551,2025-03-14 16h16.00.466284 -0700,
test,inconsistent,4,red,green,word,z,800,2000,178,1,3,z,1,0.8514237000053981,None,3,1,178,3,921.1974918000051,,,,,,,,,920.8955878999986,921.1974918000051,921.1974918000051,921.1974918000051,921.1974918000051,921.2714236000029,921.2714236000029,922.0546055000013,z,1,0.8514237000053981,None,2.164807029841249,922.055257999993,922.0709695999976,924.2202229999966,924.2036776000023,,,,12345,001,2025-03-14_16h15.53.423,stroop,2024.2.4,59.97915124712551,2025-03-14 16h16.00.466284 -0700,
,,,,,,,,,,,,,,,,,,,,,,,,,,,,,,,,,,,,,,,,,,,,,,,924.2042389999988,924.2202229999966,,,,,,,,
