type,condition1,trialNo,stim1,textColor,stimFormat,key,ITI,presTime,thisN,thisTrialN,thisRepN,press.keys,press.corr,press.rt,press.duration,stroop.thisRepN,stroop.thisTrialN,stroop.thisN,stroop.thisIndex,thisRow.t,notes,welcome.started,press_space.started,text_welcome.started,welcome.stopped,press_space.keys,press_space.rt,press_space.duration,fixation_control.started,dot_control.started,dot_control.stopped,fixation_control.stopped,trial.started,press.started,text_stroop.started,dot.started,text_stroop.stopped,trial.stopped,stroop.press.keys,stroop.press.corr,stroop.press.rt,stroop.press.duration,time_fixation,fixation.started,dot_fixation.started,dot_fixation.stopped,fixation.stopped,dot.stopped,thanks.started,thank_you.started,thanks.stopped,participant,session,date,expName,psychopyVersion,frameRate,expStart,
,,,,,,,,,,,,,,,,,,,,,,0.0024099000002024695,0.006356999991112389,0.006356999991112389,24.269371699992917,space,24.248184900003253,None,,,,,,,,,,,,,,,,,,,,,,,,1234,001,2025-03-14_15h55.45.256,pleaseworkstroopcontrol,2024.2.4,59.96861242661847,2025-03-14 15h56.07.240309 -0700,
,,,,,,,,,,,,,,,,,,,,,,,,,,,,,24.269754799999646,24.28158579999581,84.39451919999556,84.26180519998888,,,,,,,,,,,,,,,,,,,,1234,001,2025-03-14_15h55.45.256,pleaseworkstroopcontrol,2024.2.4,59.96861242661847,2025-03-14 15h56.07.240309 -0700,
test,inconsistent,24,blue,green,word,z,800,2000,0,0,0,z,1,1.6330768999905558,None,0,0,0,23,84.39451919999556,,,,,,,,,,,,,84.39008519999334,84.39451919999556,84.39451919999556,84.47769249998964,84.47769249998964,86.02868209998996,z,1,1.6330768999905558,None,3.4568163709499844,86.02907109999796,86.04381019998982,89.49253789999057,89.4767606999958,,,,,1234,001,2025-03-14_15h55.45.256,pleaseworkstroopcontrol,2024.2.4,59.96861242661847,2025-03-14 15h56.07.240309 -0700,
test,inconsistent,33,yellow,green,word,z,800,2000,1,1,0,m,0,1.2053299999970477,None,0,1,1,32,89.49253789999057,,,,,,,,,,,,,89.48548619999201,89.49253789999057,89.49253789999057,89.67597319999186,89.67597319999186,90.71029489999637,m,0,1.2053299999970477,None,4.576053771536058,90.71073169998999,90.72586199999205,95.29046419999213,95.27471349999541,,,,,1234,001,2025-03-14_15h55.45.256,pleaseworkstroopcontrol,2024.2.4,59.96861242661847,2025-03-14 15h56.07.240309 -0700,
test,consistent,54,green,green,word,m,800,2000,2,2,0,m,1,0.7779150999995181,None,0,2,2,53,95.29046419999213,,,,,,,,,,,,,95.2801380000019,95.29046419999213,95.29046419999213,95.47398879998946,95.47398879998946,96.0744643999933,m,1,0.7779150999995181,None,5.412842833683566,96.0748317999969,96.090323299999,101.48833749999176,101.47242539998842,,,,,1234,001,2025-03-14_15h55.45.256,pleaseworkstroopcontrol,2024.2.4,59.96861242661847,2025-03-14 15h56.07.240309 -0700,
test,inconsistent,58,yellow,red,word,z,800,2000,3,3,0,z,1,1.1989872999984073,None,0,3,3,57,101.48833749999176,,,,,,,,,,,,,101.47518129998934,101.48833749999176,101.48833749999176,101.6723895999894,101.6723895999894,102.68899569999485,z,1,1.1989872999984073,None,5.153920184031333,102.6894014999998,102.7046374999918,107.85308799998893,107.83717869999236,,,,,1234,001,2025-03-14_15h55.45.256,pleaseworkstroopcontrol,2024.2.4,59.96861242661847,2025-03-14 15h56.07.240309 -0700,
test,consistent,28,yellow,yellow,word,m,800,2000,4,4,0,m,1,1.1213396999955876,None,0,4,4,27,107.85308799998893,,,,,,,,,,,,,107.83802599999763,107.85308799998893,107.85308799998893,108.05289729998913,108.05289729998913,108.98717969999416,m,1,1.1213396999955876,None,2.31884861427278,108.98755330000131,109.00248819999979,111.31836749998911,111.30233520000183,,,,,1234,001,2025-03-14_15h55.45.256,pleaseworkstroopcontrol,2024.2.4,59.96861242661847,2025-03-14 15h56.07.240309 -0700,
test,inconsistent,39,red,yellow,word,z,800,2000,5,5,0,z,1,0.9829995999898529,None,0,5,5,38,111.31836749998911,,,,,,,,,,,,,111.30688079999527,111.31836749998911,111.31836749998911,111.50194989999,111.50194989999,112.3023494999943,z,1,0.9829995999898529,None,5.2231196255360555,112.30272589999367,112.31808379999711,117.53308419999667,117.51777330000186,,,,,1234,001,2025-03-14_15h55.45.256,pleaseworkstroopcontrol,2024.2.4,59.96861242661847,2025-03-14 15h56.07.240309 -0700,
test,inconsistent,3,blue,red,word,z,800,2000,6,6,0,z,1,1.3449931999930413,None,0,6,6,2,117.53308419999667,,,,,,,,,,,,,117.52214509999612,117.53308419999667,117.53308419999667,117.73282009999093,117.73282009999093,118.8834790999972,z,1,1.3449931999930413,None,3.208062664284265,118.8839328999893,118.8993776999996,122.0981763000018,122.08208310000191,,,,,1234,001,2025-03-14_15h55.45.256,pleaseworkstroopcontrol,2024.2.4,59.96861242661847,2025-03-14 15h56.07.240309 -0700,
test,consistent,45,red,red,word,m,800,2000,7,7,0,m,1,1.1181547000014689,None,0,7,7,44,122.0981763000018,,,,,,,,,,,,,122.08589249999204,122.0981763000018,122.0981763000018,122.2981310999894,122.2981310999894,123.23184279999987,m,1,1.1181547000014689,None,3.517020674159239,123.23218120000092,123.24792889998935,126.76329269999405,126.74750729999505,,,,,1234,001,2025-03-14_15h55.45.256,pleaseworkstroopcontrol,2024.2.4,59.96861242661847,2025-03-14 15h56.07.240309 -0700,
test,consistent,47,blue,blue,word,m,800,2000,8,8,0,m,1,1.0676423999975668,None,0,8,8,46,126.76329269999405,,,,,,,,,,,,,126.74982669999008,126.76329269999405,126.76329269999405,126.96375999999873,126.96375999999873,127.84821519999241,m,1,1.0676423999975668,None,2.377912192890902,127.84868850000203,127.8627853999933,130.22852350000176,130.21259250000003,,,,,1234,001,2025-03-14_15h55.45.256,pleaseworkstroopcontrol,2024.2.4,59.96861242661847,2025-03-14 15h56.07.240309 -0700,
test,inconsistent,37,red,green,word,z,800,2000,9,9,0,z,1,1.1380176999955438,None,0,9,9,36,130.22852350000176,,,,,,,,,,,,,130.2155203000002,130.22852350000176,130.22852350000176,130.41212639999867,130.41212639999867,131.3798448000016,z,1,1.1380176999955438,None,5.0644792701336465,131.3804267999949,131.39500219999172,136.4600214999955,136.44435919998796,,,,,1234,001,2025-03-14_15h55.45.256,pleaseworkstroopcontrol,2024.2.4,59.96861242661847,2025-03-14 15h56.07.240309 -0700,
test,consistent,23,green,green,word,m,800,2000,10,10,0,m,1,1.2112208000035025,None,0,10,10,22,136.4600214999955,,,,,,,,,,,,,136.4472592999955,136.4600214999955,136.4600214999955,136.64306589998887,136.64306589998887,137.67720619999454,m,1,1.2112208000035025,None,5.884185514918879,137.67757429998892,137.69263320000027,143.57399319999968,143.55808750000142,,,,,1234,001,2025-03-14_15h55.45.256,pleaseworkstroopcontrol,2024.2.4,59.96861242661847,2025-03-14 15h56.07.240309 -0700,
test,inconsistent,17,yellow,green,word,z,800,2000,11,11,0,z,1,0.9984249999979511,None,0,11,11,16,143.57399319999968,,,,,,,,,,,,,143.5625058000005,143.57399319999968,143.57399319999968,143.77406659998815,143.77406659998815,144.57549740000104,z,1,0.9984249999979511,None,4.770856248573259,144.57591539999703,144.5902797999879,149.35542909998912,149.33995100000175,,,,,1234,001,2025-03-14_15h55.45.256,pleaseworkstroopcontrol,2024.2.4,59.96861242661847,2025-03-14 15h56.07.240309 -0700,
test,inconsistent,26,green,yellow,word,z,800,2000,12,12,0,z,1,1.010944699999527,None,0,12,12,25,149.35542909998912,,,,,,,,,,,,,149.34436079999432,149.35542909998912,149.35542909998912,149.55526319998899,149.55526319998899,150.37254450000182,z,1,1.010944699999527,None,4.710600479610546,150.37385869999707,150.38840060000075,155.08669859998918,155.07092040000134,,,,,1234,001,2025-03-14_15h55.45.256,pleaseworkstroopcontrol,2024.2.4,59.96861242661847,2025-03-14 15h56.07.240309 -0700,
test,inconsistent,32,orange,green,word,z,800,2000,13,13,0,z,1,0.8455018999957247,None,0,13,13,31,155.08669859998918,,,,,,,,,,,,,155.08056149999902,155.08669859998918,155.08669859998918,155.28664059999574,155.28664059999574,155.93772229999013,z,1,0.8455018999957247,None,5.851478489571992,155.93873929999245,155.9530717000016,161.80111109999416,161.78535710000142,,,,,1234,001,2025-03-14_15h55.45.256,pleaseworkstroopcontrol,2024.2.4,59.96861242661847,2025-03-14 15h56.07.240309 -0700,
test,consistent,46,yellow,yellow,word,m,800,2000,14,14,0,m,1,0.9086456999939401,None,0,14,14,45,161.80111109999416,,,,,,,,,,,,,161.78914329998952,161.80111109999416,161.80111109999416,162.00111469998956,162.00111469998956,162.71986579999793,m,1,0.9086456999939401,None,4.6666006530712805,162.7204933999892,162.73404999999912,167.39913649999653,167.38343209998857,,,,,1234,001,2025-03-14_15h55.45.256,pleaseworkstroopcontrol,2024.2.4,59.96861242661847,2025-03-14 15h56.07.240309 -0700,
test,consistent,40,yellow,yellow,word,m,800,2000,15,15,0,m,1,0.9410233000089647,None,0,15,15,39,167.39913649999653,,,,,,,,,,,,,167.38412509999762,167.39913649999653,167.39913649999653,167.59920609999972,167.59920609999972,168.3497639999987,m,1,0.9410233000089647,None,3.3086689019675424,168.3501782999956,168.3654428000009,171.66452419999405,171.64862389999325,,,,,1234,001,2025-03-14_15h55.45.256,pleaseworkstroopcontrol,2024.2.4,59.96861242661847,2025-03-14 15h56.07.240309 -0700,
test,inconsistent,11,green,red,word,z,800,2000,16,16,0,z,1,1.140673699992476,None,0,16,16,10,171.66452419999405,,,,,,,,,,,,,171.65140089999477,171.66452419999405,171.66452419999405,171.86439750000136,171.86439750000136,172.81566290000046,z,1,1.140673699992476,None,4.936808240568173,172.8160133999918,172.8308401999966,177.7622579000017,177.74619379999058,,,,,1234,001,2025-03-14_15h55.45.256,pleaseworkstroopcontrol,2024.2.4,59.96861242661847,2025-03-14 15h56.07.240309 -0700,
test,inconsistent,44,green,red,word,z,800,2000,17,17,0,z,1,1.0598688000027323,None,0,17,17,43,177.7622579000017,,,,,,,,,,,,,177.7468460999953,177.7622579000017,177.7622579000017,177.94560629999614,177.94560629999614,178.83005910000065,z,1,1.0598688000027323,None,3.3294332486168705,178.830398399994,178.8451905999973,182.16064919999917,182.14455799999996,,,,,1234,001,2025-03-14_15h55.45.256,pleaseworkstroopcontrol,2024.2.4,59.96861242661847,2025-03-14 15h56.07.240309 -0700,
test,inconsistent,53,red,yellow,word,z,800,2000,18,18,0,z,1,1.2655895999923814,None,0,18,18,52,182.16064919999917,,,,,,,,,,,,,182.14718169999833,182.16064919999917,182.16064919999917,182.34403049999673,182.34403049999673,183.428245099989,z,1,1.2655895999923814,None,1.30005990507745,183.42858589999378,183.44367729999067,184.74320979999902,184.72713809998822,,,,,1234,001,2025-03-14_15h55.45.256,pleaseworkstroopcontrol,2024.2.4,59.96861242661847,2025-03-14 15h56.07.240309 -0700,
test,consistent,38,blue,blue,word,m,800,2000,19,19,0,m,1,0.834272799998871,None,0,19,19,37,184.74320979999902,,,,,,,,,,,,,184.72987529999227,184.74320979999902,184.74320979999902,184.94304349999584,184.94304349999584,185.59474449999107,m,1,0.834272799998871,None,2.9198807560834337,185.59521200000017,185.60964070000045,188.5254266999982,188.50942789998953,,,,,1234,001,2025-03-14_15h55.45.256,pleaseworkstroopcontrol,2024.2.4,59.96861242661847,2025-03-14 15h56.07.240309 -0700,
test,consistent,41,green,green,word,m,800,2000,20,20,0,m,1,1.336553000001004,None,0,20,20,40,188.5254266999982,,,,,,,,,,,,,188.51198489998933,188.5254266999982,188.5254266999982,188.72517099999823,188.72517099999823,189.87608519999776,m,1,1.336553000001004,None,5.7113309738280975,189.876505799999,189.8917386999965,195.5894624999928,195.573458999992,,,,,1234,001,2025-03-14_15h55.45.256,pleaseworkstroopcontrol,2024.2.4,59.96861242661847,2025-03-14 15h56.07.240309 -0700,
test,inconsistent,42,green,yellow,word,z,800,2000,21,21,0,z,1,0.8200886999984505,None,0,21,21,41,195.5894624999928,,,,,,,,,,,,,195.57416409999132,195.5894624999928,195.5894624999928,195.77271819999442,195.77271819999442,196.42336699999578,z,1,0.8200886999984505,None,4.047285448366059,196.42389579999144,196.43922999998904,200.47107519999554,200.45498299998872,,,,,1234,001,2025-03-14_15h55.45.256,pleaseworkstroopcontrol,2024.2.4,59.96861242661847,2025-03-14 15h56.07.240309 -0700,
test,inconsistent,13,purple,red,word,z,800,2000,22,22,0,z,1,0.7422694999986561,None,0,22,22,12,200.47107519999554,,,,,,,,,,,,,200.4616978999984,200.47107519999554,200.47107519999554,200.65440030000173,200.65440030000173,201.22188989999995,z,1,0.7422694999986561,None,1.0830830625134182,201.2223091999913,201.23769529999117,202.3204618000018,202.30424019999919,,,,,1234,001,2025-03-14_15h55.45.256,pleaseworkstroopcontrol,2024.2.4,59.96861242661847,2025-03-14 15h56.07.240309 -0700,
test,inconsistent,9,red,blue,word,z,800,2000,23,23,0,z,1,0.8981419999909122,None,0,23,23,8,202.3204618000018,,,,,,,,,,,,,202.3069847000006,202.3204618000018,202.3204618000018,202.50364979999722,202.50364979999722,203.22102209999866,z,1,0.8981419999909122,None,4.2995363938381175,203.22137439998914,203.2367435999913,207.535309400002,207.51935009998851,,,,,1234,001,2025-03-14_15h55.45.256,pleaseworkstroopcontrol,2024.2.4,59.96861242661847,2025-03-14 15h56.07.240309 -0700,
test,inconsistent,31,yellow,red,word,z,800,2000,24,24,0,z,1,0.7352268000104232,None,0,24,24,30,207.535309400002,,,,,,,,,,,,,207.52318299999752,207.535309400002,207.535309400002,207.73546260000148,207.73546260000148,208.28605049999896,z,1,0.7352268000104232,None,3.5768612699438904,208.28642409999156,208.30167299999448,211.86729929999274,211.85169779999705,,,,,1234,001,2025-03-14_15h55.45.256,pleaseworkstroopcontrol,2024.2.4,59.96861242661847,2025-03-14 15h56.07.240309 -0700,
test,inconsistent,2,yellow,green,word,z,800,2000,25,25,0,z,1,0.7079367000114871,None,0,25,25,1,211.86729929999274,,,,,,,,,,,,,211.85305530000187,211.86729929999274,211.86729929999274,212.06753889999527,212.06753889999527,212.58476359999622,z,1,0.7079367000114871,None,4.7328793643512945,212.58512969998992,212.6004954999953,217.33207439999387,217.3171755999938,,,,,1234,001,2025-03-14_15h55.45.256,pleaseworkstroopcontrol,2024.2.4,59.96861242661847,2025-03-14 15h56.07.240309 -0700,
test,consistent,12,yellow,yellow,word,m,800,2000,26,26,0,m,1,0.7152727000066079,None,0,26,26,11,217.33207439999387,,,,,,,,,,,,,217.31885579999653,217.33207439999387,217.33207439999387,217.53207719999773,217.53207719999773,218.04964919999475,m,1,0.7152727000066079,None,1.6064035052870658,218.05004799999006,218.06506169999193,219.66457889998856,219.6485238999885,,,,,1234,001,2025-03-14_15h55.45.256,pleaseworkstroopcontrol,2024.2.4,59.96861242661847,2025-03-14 15h56.07.240309 -0700,
test,consistent,34,green,green,word,m,800,2000,27,27,0,m,1,0.8893017999944277,None,0,27,27,33,219.66457889998856,,,,,,,,,,,,,219.65240110000013,219.66457889998856,219.66457889998856,219.84773290000157,219.84773290000157,220.56525699999474,m,1,0.8893017999944277,None,2.218932296775467,220.56563929999538,220.58078989999194,222.79717069999606,222.78084919998946,,,,,1234,001,2025-03-14_15h55.45.256,pleaseworkstroopcontrol,2024.2.4,59.96861242661847,2025-03-14 15h56.07.240309 -0700,
test,inconsistent,27,green,red,word,z,800,2000,28,28,0,z,1,0.7776023000042187,None,0,28,28,26,222.79717069999606,,,,,,,,,,,,,222.78163949999725,222.79717069999606,222.79717069999606,222.99663299998792,222.99663299998792,223.58080159999372,z,1,0.7776023000042187,None,3.1789525819785682,223.58118110000214,223.59643239999423,226.76196899999923,226.74591019999934,,,,,1234,001,2025-03-14_15h55.45.256,pleaseworkstroopcontrol,2024.2.4,59.96861242661847,2025-03-14 15h56.07.240309 -0700,
test,inconsistent,8,black,yellow,word,z,800,2000,29,29,0,z,1,0.7089379000099143,None,0,29,29,7,226.76196899999923,,,,,,,,,,,,,226.75274169999466,226.76196899999923,226.76196899999923,226.94563919999928,226.94563919999928,227.48007959999086,z,1,0.7089379000099143,None,1.127713861130807,227.48057770000014,227.49515889999748,228.6114904999995,228.5954345999926,,,,,1234,001,2025-03-14_15h55.45.256,pleaseworkstroopcontrol,2024.2.4,59.96861242661847,2025-03-14 15h56.07.240309 -0700,
test,consistent,51,red,red,word,m,800,2000,30,30,0,m,1,0.7808396000036737,None,0,30,30,50,228.6114904999995,,,,,,,,,,,,,228.59824179999123,228.6114904999995,228.6114904999995,228.7946024999983,228.7946024999983,229.39558659998875,m,1,0.7808396000036737,None,1.0608212212195591,229.39610399999947,229.41106909999507,230.46106580000196,230.44472709999536,,,,,1234,001,2025-03-14_15h55.45.256,pleaseworkstroopcontrol,2024.2.4,59.96861242661847,2025-03-14 15h56.07.240309 -0700,
test,inconsistent,30,blue,red,word,z,800,2000,31,31,0,z,1,0.8397633999993559,None,0,31,31,29,230.46106580000196,,,,,,,,,,,,,230.44707319998997,230.46106580000196,230.46106580000196,230.64398119998805,230.64398119998805,231.3116422999883,z,1,0.8397633999993559,None,1.0499405204056647,231.312036599993,231.32718799999566,232.37748439999996,232.36185729999852,,,,,1234,001,2025-03-14_15h55.45.256,pleaseworkstroopcontrol,2024.2.4,59.96861242661847,2025-03-14 15h56.07.240309 -0700,
test,inconsistent,56,green,red,word,z,800,2000,32,32,0,z,1,1.0192857999936678,None,0,32,32,55,232.37748439999996,,,,,,,,,,,,,232.36685690000013,232.37748439999996,232.37748439999996,232.57688919999055,232.57688919999055,233.41098839999177,z,1,1.0192857999936678,None,4.86266029857095,233.4119789999968,233.42684369999915,238.27497220000078,238.25941319999401,,,,,1234,001,2025-03-14_15h55.45.256,pleaseworkstroopcontrol,2024.2.4,59.96861242661847,2025-03-14 15h56.07.240309 -0700,
test,inconsistent,19,green,red,word,z,800,2000,33,33,0,z,1,0.9718136999872513,None,0,33,33,18,238.27497220000078,,,,,,,,,,,,,238.2605562999961,238.27497220000078,238.27497220000078,238.4748133999965,238.4748133999965,239.25895199998922,z,1,0.9718136999872513,None,1.6971300462682821,239.25929869999527,239.27541299999575,240.95726959999593,240.94123440000112,,,,,1234,001,2025-03-14_15h55.45.256,pleaseworkstroopcontrol,2024.2.4,59.96861242661847,2025-03-14 15h56.07.240309 -0700,
test,inconsistent,6,red,yellow,word,z,800,2000,34,34,0,z,1,1.1801899999991292,None,0,34,34,5,240.95726959999593,,,,,,,,,,,,,240.94372609999846,240.95726959999593,240.95726959999593,241.15188150000176,241.15188150000176,242.14250000000175,z,1,1.1801899999991292,None,3.4589281286344455,242.14308280000114,242.15682910000032,245.6055567000003,245.58949489999213,,,,,1234,001,2025-03-14_15h55.45.256,pleaseworkstroopcontrol,2024.2.4,59.96861242661847,2025-03-14 15h56.07.240309 -0700,
test,inconsistent,14,yellow,blue,word,z,800,2000,35,35,0,z,1,0.9107042999967234,None,0,35,35,13,245.6055567000003,,,,,,,,,,,,,245.59215669998957,245.6055567000003,245.6055567000003,245.7886232999881,245.7886232999881,246.52515370000037,z,1,0.9107042999967234,None,4.19637945833862,246.52587139999378,246.53866799999378,250.7374964999908,250.72179529999266,,,,,1234,001,2025-03-14_15h55.45.256,pleaseworkstroopcontrol,2024.2.4,59.96861242661847,2025-03-14 15h56.07.240309 -0700,
test,inconsistent,21,black,yellow,word,z,800,2000,36,36,0,z,1,0.6426233999955002,None,0,36,36,20,250.7374964999908,,,,,,,,,,,,,250.72534229999292,250.7374964999908,250.7374964999908,250.93760910000128,250.93760910000128,251.38832159999583,z,1,0.6426233999955002,None,1.0778760642668952,251.38870809999935,251.40374609999708,252.46999289999076,252.45460019999882,,,,,1234,001,2025-03-14_15h55.45.256,pleaseworkstroopcontrol,2024.2.4,59.96861242661847,2025-03-14 15h56.07.240309 -0700,
test,consistent,7,green,green,word,m,800,2000,37,37,0,m,1,0.9977335000003222,None,0,37,37,6,252.46999289999076,,,,,,,,,,,,,252.45831999999064,252.46999289999076,252.46999289999076,252.66997689999698,252.66997689999698,253.47091809999256,m,1,0.9977335000003222,None,5.800502409205313,253.471243699998,253.48622069999692,259.2844924999954,259.26834489998873,,,,,1234,001,2025-03-14_15h55.45.256,pleaseworkstroopcontrol,2024.2.4,59.96861242661847,2025-03-14 15h56.07.240309 -0700,
test,consistent,49,yellow,yellow,word,m,800,2000,38,38,0,m,1,0.6832543000055011,None,0,38,38,48,259.2844924999954,,,,,,,,,,,,,259.2713653999963,259.2844924999954,259.2844924999954,259.48442019999493,259.48442019999493,259.9697656999924,m,1,0.6832543000055011,None,3.6906787170276916,259.97016379999695,259.98418610000226,263.66607269999804,263.6507358999952,,,,,1234,001,2025-03-14_15h55.45.256,pleaseworkstroopcontrol,2024.2.4,59.96861242661847,2025-03-14 15h56.07.240309 -0700,
test,inconsistent,22,red,yellow,word,z,800,2000,39,39,0,z,1,0.7012908999895444,None,0,39,39,21,263.66607269999804,,,,,,,,,,,,,263.65472969999246,263.66607269999804,263.66607269999804,263.8660227999935,263.8660227999935,264.3835270999989,z,1,0.7012908999895444,None,5.064770875914548,264.3838848000014,264.39910679998866,269.4646039999934,269.4480970000004,,,,,1234,001,2025-03-14_15h55.45.256,pleaseworkstroopcontrol,2024.2.4,59.96861242661847,2025-03-14 15h56.07.240309 -0700,
test,inconsistent,50,yellow,green,word,z,800,2000,40,40,0,z,1,0.9925452999887057,None,0,40,40,49,269.4646039999934,,,,,,,,,,,,,269.45102189999307,269.4646039999934,269.4646039999934,269.64737229999446,269.64737229999446,270.465105700001,z,1,0.9925452999887057,None,4.1703382366173525,270.4654547999962,270.48047860000224,274.6456533999881,274.6296588999976,,,,,1234,001,2025-03-14_15h55.45.256,pleaseworkstroopcontrol,2024.2.4,59.96861242661847,2025-03-14 15h56.07.240309 -0700,
test,consistent,36,red,red,word,m,800,2000,41,41,0,m,1,1.1085823999892455,None,0,41,41,35,274.6456533999881,,,,,,,,,,,,,274.63345259999915,274.6456533999881,274.6456533999881,274.8288515000022,274.8288515000022,275.76332230000116,m,1,1.1085823999892455,None,2.8602447187327407,275.76375949999783,275.77860359998886,278.62752609999734,278.6117290999973,,,,,1234,001,2025-03-14_15h55.45.256,pleaseworkstroopcontrol,2024.2.4,59.96861242661847,2025-03-14 15h56.07.240309 -0700,
test,inconsistent,59,yellow,green,word,z,800,2000,42,42,0,z,1,0.9496244999900227,None,0,42,42,58,278.62752609999734,,,,,,,,,,,,,278.6144254999963,278.62752609999734,278.62752609999734,278.8110134000017,278.8110134000017,279.5785071999999,z,1,0.9496244999900227,None,5.409980162770607,279.57888749999984,279.593950399998,284.99221820000093,284.97626109998964,,,,,1234,001,2025-03-14_15h55.45.256,pleaseworkstroopcontrol,2024.2.4,59.96861242661847,2025-03-14 15h56.07.240309 -0700,
test,inconsistent,48,yellow,red,word,z,800,2000,43,43,0,z,1,0.9852985000034096,None,0,43,43,47,284.99221820000093,,,,,,,,,,,,,284.9769449000014,284.99221820000093,284.99221820000093,285.1919760999881,285.1919760999881,285.9925316000008,z,1,0.9852985000034096,None,4.1149322828822585,285.99288789999264,286.0082873999927,290.1073088999983,290.09122989999014,,,,,1234,001,2025-03-14_15h55.45.256,pleaseworkstroopcontrol,2024.2.4,59.96861242661847,2025-03-14 15h56.07.240309 -0700,
test,inconsistent,4,red,green,word,z,800,2000,44,44,0,z,1,0.7551282999920659,None,0,44,44,3,290.1073088999983,,,,,,,,,,,,,290.0945750999963,290.1073088999983,290.1073088999983,290.30698989999655,290.30698989999655,290.87436439999146,z,1,0.7551282999920659,None,5.5032283346925,290.87471799999184,290.8899938999966,296.38880000000063,296.3720697999961,,,,,1234,001,2025-03-14_15h55.45.256,pleaseworkstroopcontrol,2024.2.4,59.96861242661847,2025-03-14 15h56.07.240309 -0700,
test,inconsistent,25,red,blue,word,z,800,2000,45,45,0,z,1,0.7033660000015516,None,0,45,45,24,296.38880000000063,,,,,,,,,,,,,296.37279670000135,296.38880000000063,296.38880000000063,296.5881920999964,296.5881920999964,297.1056050999905,z,1,0.7033660000015516,None,1.5602271040972262,297.10607219999656,297.12116609999794,298.67064089998894,298.65544789998967,,,,,1234,001,2025-03-14_15h55.45.256,pleaseworkstroopcontrol,2024.2.4,59.96861242661847,2025-03-14 15h56.07.240309 -0700,
test,consistent,57,yellow,yellow,word,m,800,2000,46,46,0,m,1,0.7252253999904497,None,0,46,46,56,298.67064089998894,,,,,,,,,,,,,298.65964549999626,298.67064089998894,298.67064089998894,298.8706306999957,298.8706306999957,299.4059325999988,m,1,0.7252253999904497,None,4.426572940666956,299.40639789999113,299.4204463999922,303.8361101999908,303.8198163999914,,,,,1234,001,2025-03-14_15h55.45.256,pleaseworkstroopcontrol,2024.2.4,59.96861242661847,2025-03-14 15h56.07.240309 -0700,
test,consistent,1,red,red,word,m,800,2000,47,47,0,z,0,1.495519999996759,None,0,47,47,0,303.8361101999908,,,,,,,,,,,,,303.82211069999903,303.8361101999908,303.8361101999908,304.0191722000018,304.0191722000018,305.3360309999989,z,0,1.495519999996759,None,3.636895534931445,305.33638339999015,305.35175779998826,308.9839084999985,308.968374899996,,,,,1234,001,2025-03-14_15h55.45.256,pleaseworkstroopcontrol,2024.2.4,59.96861242661847,2025-03-14 15h56.07.240309 -0700,
test,inconsistent,20,red,green,word,z,800,2000,48,48,0,z,1,0.733520599998883,None,0,48,48,19,308.9839084999985,,,,,,,,,,,,,308.96989429999667,308.9839084999985,308.9839084999985,309.18381529999897,309.18381529999897,309.73448369999824,z,1,0.733520599998883,None,1.0320897344957256,309.7348200999986,309.75025639998785,310.76654929999495,310.75036619999446,,,,,1234,001,2025-03-14_15h55.45.256,pleaseworkstroopcontrol,2024.2.4,59.96861242661847,2025-03-14 15h56.07.240309 -0700,
test,consistent,43,green,green,word,m,800,2000,49,49,0,m,1,0.6846341999917058,None,0,49,49,42,310.76654929999495,,,,,,,,,,,,,310.7534115999879,310.76654929999495,310.76654929999495,310.9497238999902,310.9497238999902,311.4674747999961,m,1,0.6846341999917058,None,2.606707025491793,311.4678014999954,311.4828887999902,314.0821250000008,314.0665779999981,,,,,1234,001,2025-03-14_15h55.45.256,pleaseworkstroopcontrol,2024.2.4,59.96861242661847,2025-03-14 15h56.07.240309 -0700,
test,inconsistent,52,red,green,word,z,800,2000,50,50,0,z,1,1.0090683000016725,None,0,50,50,51,314.0821250000008,,,,,,,,,,,,,314.0719953999942,314.0821250000008,314.0821250000008,314.28192949999357,314.28192949999357,315.10009379999246,z,1,1.0090683000016725,None,1.1220102902656006,315.1012192999915,315.11503039998934,316.2314670999913,316.21516369999154,,,,,1234,001,2025-03-14_15h55.45.256,pleaseworkstroopcontrol,2024.2.4,59.96861242661847,2025-03-14 15h56.07.240309 -0700,
test,consistent,18,red,red,word,m,800,2000,51,51,0,m,1,0.8825979999965057,None,0,51,51,17,316.2314670999913,,,,,,,,,,,,,316.2159563000023,316.2314670999913,316.2314670999913,316.4147832999879,316.4147832999879,317.11536630000046,m,1,0.8825979999965057,None,1.8630432532568282,317.1157441999967,317.1310181000008,318.980341699993,318.96425759998965,,,,,1234,001,2025-03-14_15h55.45.256,pleaseworkstroopcontrol,2024.2.4,59.96861242661847,2025-03-14 15h56.07.240309 -0700,
test,inconsistent,55,green,yellow,word,z,800,2000,52,52,0,z,1,0.9665958999976283,None,0,52,52,54,318.980341699993,,,,,,,,,,,,,318.96714619999693,318.980341699993,318.980341699993,319.163621899992,319.163621899992,319.94839219999267,z,1,0.9665958999976283,None,3.7900934378300346,319.94875270000193,319.96436359999643,323.7453174999973,323.72958139999537,,,,,1234,001,2025-03-14_15h55.45.256,pleaseworkstroopcontrol,2024.2.4,59.96861242661847,2025-03-14 15h56.07.240309 -0700,
test,inconsistent,29,green,blue,word,z,800,2000,53,53,0,z,1,0.7104944999882719,None,0,53,53,28,323.7453174999973,,,,,,,,,,,,,323.7303741999931,323.7453174999973,323.7453174999973,323.945281399996,323.945281399996,324.4632666999969,z,1,0.7104944999882719,None,1.9816889905558641,324.46363620000193,324.47847059999185,326.4450288999942,326.4286318999948,,,,,1234,001,2025-03-14_15h55.45.256,pleaseworkstroopcontrol,2024.2.4,59.96861242661847,2025-03-14 15h56.07.240309 -0700,
test,inconsistent,16,red,green,word,z,800,2000,54,54,0,z,1,1.3834935000049882,None,0,54,54,15,326.4450288999942,,,,,,,,,,,,,326.4313617000007,326.4450288999942,326.4450288999942,326.6443694999907,326.6443694999907,327.8449521000002,z,1,1.3834935000049882,None,4.893732985546171,327.8453576999891,327.86059589999786,332.74246959999437,332.72625629999675,,,,,1234,001,2025-03-14_15h55.45.256,pleaseworkstroopcontrol,2024.2.4,59.96861242661847,2025-03-14 15h56.07.240309 -0700,
test,inconsistent,5,orange,blue,word,z,800,2000,55,55,0,z,1,1.2701566000032471,None,0,55,55,4,332.74246959999437,,,,,,,,,,,,,332.72916439999244,332.74246959999437,332.74246959999437,332.92558379999537,332.92558379999537,334.02652259999013,z,1,1.2701566000032471,None,1.3900361387959976,334.02696569998807,334.0418944999983,335.4247503999941,335.4087459000002,,,,,1234,001,2025-03-14_15h55.45.256,pleaseworkstroopcontrol,2024.2.4,59.96861242661847,2025-03-14 15h56.07.240309 -0700,
test,consistent,35,red,red,word,m,800,2000,56,56,0,m,1,0.6741131000017049,None,0,56,56,34,335.4247503999941,,,,,,,,,,,,,335.41167879999557,335.4247503999941,335.4247503999941,335.624605399993,335.624605399993,336.10881629999494,m,1,0.6741131000017049,None,5.6295338121287015,336.1092457999912,336.1244966999948,341.7392123999889,341.72356109999237,,,,,1234,001,2025-03-14_15h55.45.256,pleaseworkstroopcontrol,2024.2.4,59.96861242661847,2025-03-14 15h56.07.240309 -0700,
test,inconsistent,10,green,yellow,word,z,800,2000,57,57,0,z,1,0.8377354999975068,None,0,57,57,9,341.7392123999889,,,,,,,,,,,,,341.72818219999317,341.7392123999889,341.7392123999889,341.9392186999903,341.9392186999903,342.5907225999981,z,1,0.8377354999975068,None,2.254483496529007,342.59136609999405,342.6056130999932,344.85497020000184,344.83919319999404,,,,,1234,001,2025-03-14_15h55.45.256,pleaseworkstroopcontrol,2024.2.4,59.96861242661847,2025-03-14 15h56.07.240309 -0700,
test,inconsistent,15,yellow,red,word,z,800,2000,58,58,0,z,1,0.9507251000031829,None,0,58,58,14,344.85497020000184,,,,,,,,,,,,,344.8418571999937,344.85497020000184,344.85497020000184,345.05477750000136,345.05477750000136,345.8220150999987,z,1,0.9507251000031829,None,5.6390660423039245,345.82238230000075,345.83795299999474,351.4698427999974,351.4534554999991,,,,,1234,001,2025-03-14_15h55.45.256,pleaseworkstroopcontrol,2024.2.4,59.96861242661847,2025-03-14 15h56.07.240309 -0700,
test,inconsistent,33,yellow,green,word,z,800,2000,59,0,1,z,1,0.6239867999975104,None,1,0,59,32,351.4698427999974,,,,,,,,,,,,,351.4544879000023,351.4698427999974,351.4698427999974,351.66915699999663,351.66915699999663,352.10327490000054,z,1,0.6239867999975104,None,2.787161204296002,352.10365739998815,352.11901899999066,354.9014298999973,354.8859739999898,,,,,1234,001,2025-03-14_15h55.45.256,pleaseworkstroopcontrol,2024.2.4,59.96861242661847,2025-03-14 15h56.07.240309 -0700,
test,inconsistent,20,red,green,word,z,800,2000,60,1,1,z,1,0.8398566999967443,None,1,1,60,19,354.9014298999973,,,,,,,,,,,,,354.89059889999044,354.9014298999973,354.9014298999973,355.10137730000133,355.10137730000133,355.7527321999951,z,1,0.8398566999967443,None,3.274692682303744,355.7533051999926,355.7676943999977,359.0335197999957,359.0175043999916,,,,,1234,001,2025-03-14_15h55.45.256,pleaseworkstroopcontrol,2024.2.4,59.96861242661847,2025-03-14 15h56.07.240309 -0700,
test,consistent,54,green,green,word,m,800,2000,61,2,1,m,1,0.874315299995942,None,1,2,61,53,359.0335197999957,,,,,,,,,,,,,359.02017749998777,359.0335197999957,359.0335197999957,359.23317719998886,359.23317719998886,359.9184471999906,m,1,0.874315299995942,None,1.8748663868059858,359.918834600001,359.93367689999286,361.798956499988,361.78346779999265,,,,,1234,001,2025-03-14_15h55.45.256,pleaseworkstroopcontrol,2024.2.4,59.96861242661847,2025-03-14 15h56.07.240309 -0700,
test,inconsistent,22,red,yellow,word,z,800,2000,62,3,1,z,1,0.6759102000069106,None,1,3,62,21,361.798956499988,,,,,,,,,,,,,361.786815399988,361.798956499988,361.798956499988,361.99900509999134,361.99900509999134,362.48315210000146,z,1,0.6759102000069106,None,2.9610326097862267,362.4835538999905,362.49871359999815,365.4479049999936,365.4318857999897,,,,,1234,001,2025-03-14_15h55.45.256,pleaseworkstroopcontrol,2024.2.4,59.96861242661847,2025-03-14 15h56.07.240309 -0700,
test,inconsistent,55,green,yellow,word,z,800,2000,63,4,1,z,1,0.6319673999969382,None,1,4,63,54,365.4479049999936,,,,,,,,,,,,,365.43582949999836,365.4479049999936,365.4479049999936,365.64780559999053,365.64780559999053,366.081720999995,z,1,0.6319673999969382,None,2.9626758733864484,366.0820715000009,366.09750189998886,369.0464784999931,369.0307354999968,,,,,1234,001,2025-03-14_15h55.45.256,pleaseworkstroopcontrol,2024.2.4,59.96861242661847,2025-03-14 15h56.07.240309 -0700,
test,inconsistent,53,red,yellow,word,z,800,2000,64,5,1,z,1,0.7343667000095593,None,1,5,64,52,369.0464784999931,,,,,,,,,,,,,369.03504950000206,369.0464784999931,369.0464784999931,369.24657379998825,369.24657379998825,369.7982570000022,z,1,0.7343667000095593,None,5.708314470708835,369.79863799999293,369.81294550000166,375.5110626999958,375.4950727999967,,,,,1234,001,2025-03-14_15h55.45.256,pleaseworkstroopcontrol,2024.2.4,59.96861242661847,2025-03-14 15h56.07.240309 -0700,
test,inconsistent,16,red,green,word,z,800,2000,65,6,1,z,1,0.8460860999912256,None,1,6,65,15,375.5110626999958,,,,,,,,,,,,,375.49602789999335,375.5110626999958,375.5110626999958,375.6941458999936,375.6941458999936,376.36276969999017,z,1,0.8460860999912256,None,3.2670887874279484,376.36318429998937,376.3774024000013,379.6428306999878,379.6271197999886,,,,,1234,001,2025-03-14_15h55.45.256,pleaseworkstroopcontrol,2024.2.4,59.96861242661847,2025-03-14 15h56.07.240309 -0700,
test,consistent,47,blue,blue,word,m,800,2000,66,7,1,m,1,1.0484132000128739,None,1,7,66,46,379.6428306999878,,,,,,,,,,,,,379.6295772000012,379.6428306999878,379.6428306999878,379.84278079999785,379.84278079999785,380.69363679998787,m,1,1.0484132000128739,None,5.171106439192039,380.69397349999053,380.70940969999356,385.87404239999887,385.85817880000104,,,,,1234,001,2025-03-14_15h55.45.256,pleaseworkstroopcontrol,2024.2.4,59.96861242661847,2025-03-14 15h56.07.240309 -0700,
test,consistent,34,green,green,word,m,800,2000,67,8,1,m,1,0.9885171000059927,None,1,8,67,33,385.87404239999887,,,,,,,,,,,,,385.8609712999896,385.87404239999887,385.87404239999887,386.07390920000034,386.07390920000034,386.87481179999304,m,1,0.9885171000059927,None,2.5124357635127517,386.87518529999943,386.89039289999346,389.38952899999276,389.3734728999989,,,,,1234,001,2025-03-14_15h55.45.256,pleaseworkstroopcontrol,2024.2.4,59.96861242661847,2025-03-14 15h56.07.240309 -0700,
test,inconsistent,56,green,red,word,z,800,2000,68,9,1,z,1,0.7665200999908848,None,1,9,68,55,389.38952899999276,,,,,,,,,,,,,389.37424449999526,389.38952899999276,389.38952899999276,389.5899972999905,389.5899972999905,390.1573587999883,z,1,0.7665200999908848,None,4.887170201854051,390.15777479999815,390.1726176999946,395.0546978999919,395.0381994999916,,,,,1234,001,2025-03-14_15h55.45.256,pleaseworkstroopcontrol,2024.2.4,59.96861242661847,2025-03-14 15h56.07.240309 -0700,
test,inconsistent,19,green,red,word,z,800,2000,69,10,1,z,1,0.9186705000029178,None,1,10,69,18,395.0546978999919,,,,,,,,,,,,,395.03898579999804,395.0546978999919,395.0546978999919,395.2541523999971,395.2541523999971,395.9882806999958,z,1,0.9186705000029178,None,4.020129676554879,395.98869379999815,396.0039555999974,400.01942149999377,400.00369969999883,,,,,1234,001,2025-03-14_15h55.45.256,pleaseworkstroopcontrol,2024.2.4,59.96861242661847,2025-03-14 15h56.07.240309 -0700,
test,inconsistent,11,green,red,word,z,800,2000,70,11,1,None,0,,,1,11,70,10,400.01942149999377,,,,,,,,,,,,,400.0051179000002,400.01942149999377,400.01942149999377,400.21932150000066,400.21932150000066,405.0026097999944,None,0,,,4.035164498447669,405.00296149999485,405.0182310999953,409.05003639998904,409.03424879998784,405.0182310999953,,,,1234,001,2025-03-14_15h55.45.256,pleaseworkstroopcontrol,2024.2.4,59.96861242661847,2025-03-14 15h56.07.240309 -0700,
test,inconsistent,44,green,red,word,z,800,2000,71,12,1,z,1,0.794158000004245,None,1,12,71,43,409.05003639998904,,,,,,,,,,,,,409.0367638999887,409.05003639998904,409.05003639998904,409.249393399994,409.249393399994,409.8502613000019,z,1,0.794158000004245,None,3.4825881304035926,409.85067249998974,409.86614069998905,413.34790009999415,413.3318153,,,,,1234,001,2025-03-14_15h55.45.256,pleaseworkstroopcontrol,2024.2.4,59.96861242661847,2025-03-14 15h56.07.240309 -0700,
test,inconsistent,4,red,green,word,z,800,2000,72,13,1,z,1,1.5574557999934768,None,1,13,72,3,413.34790009999415,,,,,,,,,,,,,413.3344519999955,413.34790009999415,413.34790009999415,413.5313063999929,413.5313063999929,414.91612819999864,z,1,1.5574557999934768,None,5.511408796005224,414.916785399997,414.93083409999963,420.42897449999873,420.41298179999285,,,,,1234,001,2025-03-14_15h55.45.256,pleaseworkstroopcontrol,2024.2.4,59.96861242661847,2025-03-14 15h56.07.240309 -0700,
test,consistent,38,blue,blue,word,m,800,2000,73,14,1,m,1,0.6408424000110244,None,1,14,73,37,420.42897449999873,,,,,,,,,,,,,420.415749199994,420.42897449999873,420.42897449999873,420.6288313999976,420.6288313999976,421.0799138000002,m,1,0.6408424000110244,None,2.394166331899256,421.0802465000015,421.09553310000047,423.4779402999993,423.4617716999928,,,,,1234,001,2025-03-14_15h55.45.256,pleaseworkstroopcontrol,2024.2.4,59.96861242661847,2025-03-14 15h56.07.240309 -0700,
test,consistent,57,yellow,yellow,word,m,800,2000,74,15,1,m,1,0.8032662000041455,None,1,15,74,56,423.4779402999993,,,,,,,,,,,,,423.4648537999892,423.4779402999993,423.4779402999993,423.66106699999364,423.66106699999364,424.2952931999898,m,1,0.8032662000041455,None,1.3534007461504802,424.2957507999963,424.3107936000015,425.660418399988,425.64442519999284,,,,,1234,001,2025-03-14_15h55.45.256,pleaseworkstroopcontrol,2024.2.4,59.96861242661847,2025-03-14 15h56.07.240309 -0700,
test,inconsistent,14,yellow,blue,word,z,800,2000,75,16,1,z,1,0.7591097999975318,None,1,16,75,13,425.660418399988,,,,,,,,,,,,,425.6453490999993,425.660418399988,425.660418399988,425.8603188999987,425.8603188999987,426.4282211999962,z,1,0.7591097999975318,None,2.83060846332157,426.42860559999826,426.4434768999927,429.2591388000001,429.24365629999375,,,,,1234,001,2025-03-14_15h55.45.256,pleaseworkstroopcontrol,2024.2.4,59.96861242661847,2025-03-14 15h56.07.240309 -0700,
test,inconsistent,2,yellow,green,word,z,800,2000,76,17,1,z,1,0.7002136000082828,None,1,17,76,1,429.2591388000001,,,,,,,,,,,,,429.244420499992,429.2591388000001,429.2591388000001,429.45904649999284,429.45904649999284,429.96041429998877,z,1,0.7002136000082828,None,2.284517763547583,429.96074039999803,429.9755762999994,432.25848089999636,432.24349199999415,,,,,1234,001,2025-03-14_15h55.45.256,pleaseworkstroopcontrol,2024.2.4,59.96861242661847,2025-03-14 15h56.07.240309 -0700,
test,inconsistent,26,green,yellow,word,z,800,2000,77,18,1,z,1,0.943313700001454,None,1,18,77,25,432.25848089999636,,,,,,,,,,,,,432.24777339999855,432.25848089999636,432.25848089999636,432.4581299999991,432.4581299999991,433.2088597999973,z,1,0.943313700001454,None,1.150301802110782,433.2092084999895,433.2243938999891,434.37404439999955,434.35837669999455,,,,,1234,001,2025-03-14_15h55.45.256,pleaseworkstroopcontrol,2024.2.4,59.96861242661847,2025-03-14 15h56.07.240309 -0700,
test,inconsistent,32,orange,green,word,z,800,2000,78,19,1,z,1,0.7606699000025401,None,1,19,78,31,434.37404439999955,,,,,,,,,,,,,434.36224079999374,434.37404439999955,434.37404439999955,434.57393499999307,434.57393499999307,435.14172959999996,z,1,0.7606699000025401,None,5.484887146605362,435.14216769998893,435.15713599999435,440.63863570000103,440.6226895,,,,,1234,001,2025-03-14_15h55.45.256,pleaseworkstroopcontrol,2024.2.4,59.96861242661847,2025-03-14 15h56.07.240309 -0700,
test,inconsistent,3,blue,red,word,z,800,2000,79,20,1,z,1,0.6334313999977894,None,1,20,79,2,440.63863570000103,,,,,,,,,,,,,440.6252935999946,440.63863570000103,440.63863570000103,440.83898279999266,440.83898279999266,441.27338379999856,z,1,0.6334313999977894,None,1.01793224443245,441.2738218000013,441.28843380000035,442.30469350000203,442.2887054999883,,,,,1234,001,2025-03-14_15h55.45.256,pleaseworkstroopcontrol,2024.2.4,59.96861242661847,2025-03-14 15h56.07.240309 -0700,
test,inconsistent,30,blue,red,word,z,800,2000,80,21,1,z,1,0.7378125999966869,None,1,21,80,29,442.30469350000203,,,,,,,,,,,,,442.2894469000021,442.30469350000203,442.30469350000203,442.48796169999696,442.48796169999696,443.055884299989,z,1,0.7378125999966869,None,2.0861373813241215,443.0562331999972,443.07110329999705,445.1537524000014,445.13780099998985,,,,,1234,001,2025-03-14_15h55.45.256,pleaseworkstroopcontrol,2024.2.4,59.96861242661847,2025-03-14 15h56.07.240309 -0700,
test,consistent,18,red,red,word,m,800,2000,81,22,1,m,1,0.7992866999993566,None,1,22,81,17,445.1537524000014,,,,,,,,,,,,,445.14132679998875,445.1537524000014,445.1537524000014,445.3539635999914,445.3539635999914,445.95513149999897,m,1,0.7992866999993566,None,5.415494665952008,445.95555869999225,445.97043180000037,451.3848317999946,451.36903000000166,,,,,1234,001,2025-03-14_15h55.45.256,pleaseworkstroopcontrol,2024.2.4,59.96861242661847,2025-03-14 15h56.07.240309 -0700,
test,consistent,43,green,green,word,m,800,2000,82,23,1,m,1,0.5987573999882443,None,1,23,82,42,451.3848317999946,,,,,,,,,,,,,451.3719771999895,451.3848317999946,451.3848317999946,451.5687354999973,451.5687354999973,451.98622839999734,m,1,0.5987573999882443,None,4.570116737125789,451.9865634000016,452.00127349999093,456.5664784999972,456.5504385999957,,,,,1234,001,2025-03-14_15h55.45.256,pleaseworkstroopcontrol,2024.2.4,59.96861242661847,2025-03-14 15h56.07.240309 -0700,
test,inconsistent,25,red,blue,word,z,800,2000,83,24,1,z,1,0.5789857999916421,None,1,24,83,24,456.5664784999972,,,,,,,,,,,,,456.5532366999978,456.5664784999972,456.5664784999972,456.7497216999909,456.7497216999909,457.15119979999145,z,1,0.5789857999916421,None,5.938470859318645,457.15152839999064,457.1662376999884,463.09766189999937,463.0816646999883,,,,,1234,001,2025-03-14_15h55.45.256,pleaseworkstroopcontrol,2024.2.4,59.96861242661847,2025-03-14 15h56.07.240309 -0700,
test,consistent,36,red,red,word,m,800,2000,84,25,1,m,1,0.6874333000014303,None,1,25,84,35,463.09766189999937,,,,,,,,,,,,,463.08245419999,463.09766189999937,463.09766189999937,463.2977180000016,463.2977180000016,463.7982563999976,m,1,0.6874333000014303,None,1.9923534500195546,463.79866129999573,463.81388109999534,465.796657400002,465.78055440000026,,,,,1234,001,2025-03-14_15h55.45.256,pleaseworkstroopcontrol,2024.2.4,59.96861242661847,2025-03-14 15h56.07.240309 -0700,
test,inconsistent,59,yellow,green,word,z,800,2000,85,26,1,z,1,0.6056059999973513,None,1,26,85,58,465.796657400002,,,,,,,,,,,,,465.7831137999892,465.796657400002,465.796657400002,465.9798676999926,465.9798676999926,466.4150508999883,z,1,0.6056059999973513,None,5.780698415907952,466.4157751999883,466.42993659999047,472.2111537000019,472.1955717999954,,,,,1234,001,2025-03-14_15h55.45.256,pleaseworkstroopcontrol,2024.2.4,59.96861242661847,2025-03-14 15h56.07.240309 -0700,
test,inconsistent,48,yellow,red,word,z,800,2000,86,27,1,z,1,0.6896050000068499,None,1,27,86,47,472.2111537000019,,,,,,,,,,,,,472.197325199988,472.2111537000019,472.2111537000019,472.41112189998967,472.41112189998967,472.91238689998863,z,1,0.6896050000068499,None,2.164226978704716,472.9127201999945,472.9278886999964,475.0772233999887,475.06160829999135,,,,,1234,001,2025-03-14_15h55.45.256,pleaseworkstroopcontrol,2024.2.4,59.96861242661847,2025-03-14 15h56.07.240309 -0700,
test,consistent,45,red,red,word,m,800,2000,87,28,1,m,1,0.7393889000086347,None,1,28,87,44,475.0772233999887,,,,,,,,,,,,,475.06768529998953,475.0772233999887,475.0772233999887,475.27720909999334,475.27720909999334,475.8278350999899,m,1,0.7393889000086347,None,1.1462415739873886,475.8283692999976,475.84323949999816,476.9762092000019,476.95984650000173,,,,,1234,001,2025-03-14_15h55.45.256,pleaseworkstroopcontrol,2024.2.4,59.96861242661847,2025-03-14 15h56.07.240309 -0700,
test,inconsistent,15,yellow,red,word,z,800,2000,88,29,1,z,1,0.7095121000020299,None,1,29,88,14,476.9762092000019,,,,,,,,,,,,,476.9625656999997,476.9762092000019,476.9762092000019,477.15924059999816,477.15924059999816,477.6939652000001,z,1,0.7095121000020299,None,1.8950020045868756,477.6944680000015,477.7091863999958,479.5918280999904,479.5765315999888,,,,,1234,001,2025-03-14_15h55.45.256,pleaseworkstroopcontrol,2024.2.4,59.96861242661847,2025-03-14 15h56.07.240309 -0700,
test,consistent,1,red,red,word,m,800,2000,89,30,1,m,1,0.802123900008155,None,1,30,89,0,479.5918280999904,,,,,,,,,,,,,479.57895859998825,479.5918280999904,479.5918280999904,479.7917645999987,479.7917645999987,480.40897009999026,m,1,0.802123900008155,None,3.429775201640136,480.40934019999986,480.42497300000105,483.84057249999023,483.8245104999951,,,,,1234,001,2025-03-14_15h55.45.256,pleaseworkstroopcontrol,2024.2.4,59.96861242661847,2025-03-14 15h56.07.240309 -0700,
test,inconsistent,10,green,yellow,word,z,800,2000,90,31,1,z,1,0.6204711999889696,None,1,31,90,9,483.84057249999023,,,,,,,,,,,,,483.827397999994,483.84057249999023,483.84057249999023,484.02374899999995,484.02374899999995,484.4752565999952,z,1,0.6204711999889696,None,2.057547634327002,484.47560049999447,484.49025889999757,486.53947959998914,486.52420039998833,,,,,1234,001,2025-03-14_15h55.45.256,pleaseworkstroopcontrol,2024.2.4,59.96861242661847,2025-03-14 15h56.07.240309 -0700,
test,inconsistent,42,green,yellow,word,z,800,2000,91,32,1,z,1,0.6013367999985348,None,1,32,91,41,486.53947959998914,,,,,,,,,,,,,486.5248139999894,486.53947959998914,486.53947959998914,486.73949880000146,486.73949880000146,487.1569754999946,z,1,0.6013367999985348,None,3.065579491109176,487.15732749999734,487.17264910000085,490.23855179999373,490.22281139998813,,,,,1234,001,2025-03-14_15h55.45.256,pleaseworkstroopcontrol,2024.2.4,59.96861242661847,2025-03-14 15h56.07.240309 -0700,
test,inconsistent,27,green,red,word,z,800,2000,92,33,1,z,1,0.8433761999913258,None,1,33,92,26,490.23855179999373,,,,,,,,,,,,,490.22394820000045,490.23855179999373,490.23855179999373,490.4381369999901,490.4381369999901,491.0895034999994,z,1,0.8433761999913258,None,4.520751172211534,491.09012670000084,491.10460310000053,495.6196770999959,495.603626799988,,,,,1234,001,2025-03-14_15h55.45.256,pleaseworkstroopcontrol,2024.2.4,59.96861242661847,2025-03-14 15h56.07.240309 -0700,
test,inconsistent,17,yellow,green,word,z,800,2000,93,34,1,z,1,0.7423629999975674,None,1,34,93,16,495.6196770999959,,,,,,,,,,,,,495.6068830000004,495.6196770999959,495.6196770999959,495.8028961999953,495.8028961999953,496.37051670000073,z,1,0.7423629999975674,None,1.9830181312713704,496.37093900000036,496.38626999998814,498.36889990000054,498.35272460000124,,,,,1234,001,2025-03-14_15h55.45.256,pleaseworkstroopcontrol,2024.2.4,59.96861242661847,2025-03-14 15h56.07.240309 -0700,
test,consistent,35,red,red,word,m,800,2000,94,35,1,m,1,0.7160052999970503,None,1,35,94,34,498.36889990000054,,,,,,,,,,,,,498.35573779999686,498.36889990000054,498.36889990000054,498.55198499999824,498.55198499999824,499.08624379998946,m,1,0.7160052999970503,None,1.8229198576193875,499.086599000002,499.1022196999984,500.91816180000023,500.90181189999566,,,,,1234,001,2025-03-14_15h55.45.256,pleaseworkstroopcontrol,2024.2.4,59.96861242661847,2025-03-14 15h56.07.240309 -0700,
test,consistent,41,green,green,word,m,800,2000,95,36,1,z,0,0.5808309999993071,None,1,36,95,40,500.91816180000023,,,,,,,,,,,,,500.90454370000225,500.91816180000023,500.91816180000023,501.1013859999948,501.1013859999948,501.50247009999293,z,0,0.5808309999993071,None,5.546342044272887,501.5029317000008,501.51767929999914,507.0496417999966,507.03309679999074,,,,,1234,001,2025-03-14_15h55.45.256,pleaseworkstroopcontrol,2024.2.4,59.96861242661847,2025-03-14 15h56.07.240309 -0700,
test,inconsistent,58,yellow,red,word,z,800,2000,96,37,1,z,1,0.7592030000087107,None,1,37,96,57,507.0496417999966,,,,,,,,,,,,,507.0363906999992,507.0496417999966,507.0496417999966,507.24899059999734,507.24899059999734,507.81634530000156,z,1,0.7592030000087107,None,1.323275333823696,507.8167945000023,507.83209869998973,509.1483823000017,509.1326604999922,,,,,1234,001,2025-03-14_15h55.45.256,pleaseworkstroopcontrol,2024.2.4,59.96861242661847,2025-03-14 15h56.07.240309 -0700,
test,inconsistent,21,black,yellow,word,z,800,2000,97,38,1,z,1,0.7597818999929586,None,1,38,97,20,509.1483823000017,,,,,,,,,,,,,509.135838599992,509.1483823000017,509.1483823000017,509.34840649999387,509.34840649999387,509.91596410000056,z,1,0.7597818999929586,None,2.026643443867417,509.9163067999907,509.9313795999915,511.9475736999884,511.93134969999664,,,,,1234,001,2025-03-14_15h55.45.256,pleaseworkstroopcontrol,2024.2.4,59.96861242661847,2025-03-14 15h56.07.240309 -0700,
test,consistent,28,yellow,yellow,word,m,800,2000,98,39,1,m,1,0.876342299990938,None,1,39,98,27,511.9475736999884,,,,,,,,,,,,,511.9344046999904,511.9475736999884,511.9475736999884,512.1307451999892,512.1307451999892,512.8318082999904,m,1,0.876342299990938,None,4.0785633644428545,512.8324046999915,512.8470534999942,516.9125980999961,516.8970206999948,,,,,1234,001,2025-03-14_15h55.45.256,pleaseworkstroopcontrol,2024.2.4,59.96861242661847,2025-03-14 15h56.07.240309 -0700,
test,inconsistent,39,red,yellow,word,z,800,2000,99,40,1,z,1,1.190746099993703,None,1,40,99,38,516.9125980999961,,,,,,,,,,,,,516.8997634999978,516.9125980999961,516.9125980999961,517.1124653000006,517.1124653000006,518.1133113999967,z,1,1.190746099993703,None,2.5636274857183268,518.1137162999948,518.1286762999953,520.6778369999956,520.6617326999985,,,,,1234,001,2025-03-14_15h55.45.256,pleaseworkstroopcontrol,2024.2.4,59.96861242661847,2025-03-14 15h56.07.240309 -0700,
test,consistent,12,yellow,yellow,word,m,800,2000,100,41,1,m,1,1.0389978000021074,None,1,41,100,11,520.6778369999956,,,,,,,,,,,,,520.6651608999964,520.6778369999956,520.6778369999956,520.877619299994,520.877619299994,521.729846000002,m,1,1.0389978000021074,None,5.401644781440673,521.730382099995,521.7441264999943,527.1422020999889,527.1263982999953,,,,,1234,001,2025-03-14_15h55.45.256,pleaseworkstroopcontrol,2024.2.4,59.96861242661847,2025-03-14 15h56.07.240309 -0700,
test,inconsistent,24,blue,green,word,z,800,2000,101,42,1,z,1,1.564138500005356,None,1,42,101,23,527.1422020999889,,,,,,,,,,,,,527.1285557999945,527.1422020999889,527.1422020999889,527.3421339999913,527.3421339999913,528.7093072999996,z,1,1.564138500005356,None,3.4619034972151543,528.7096656999929,528.7250706999912,532.1745120999985,532.1578481999895,,,,,1234,001,2025-03-14_15h55.45.256,pleaseworkstroopcontrol,2024.2.4,59.96861242661847,2025-03-14 15h56.07.240309 -0700,
test,inconsistent,29,green,blue,word,z,800,2000,102,43,1,z,1,0.876921000002767,None,1,43,102,28,532.1745120999985,,,,,,,,,,,,,532.1610101999977,532.1745120999985,532.1745120999985,532.3737013999926,532.3737013999926,533.0585430999927,z,1,0.876921000002767,None,4.319565424500452,533.0589649999893,533.0735178999894,537.3916009999957,537.382840899998,,,,,1234,001,2025-03-14_15h55.45.256,pleaseworkstroopcontrol,2024.2.4,59.96861242661847,2025-03-14 15h56.07.240309 -0700,
test,inconsistent,37,red,green,word,z,800,2000,103,44,1,z,1,1.269370699999854,None,1,44,103,36,537.3916009999957,,,,,,,,,,,,,537.3863960999879,537.3916009999957,537.3916009999957,537.5884882999962,537.5884882999962,538.6729926999978,z,1,1.269370699999854,None,1.1044123408081965,538.67342739999,538.6881509999948,539.7879796999914,539.7719858999917,,,,,1234,001,2025-03-14_15h55.45.256,pleaseworkstroopcontrol,2024.2.4,59.96861242661847,2025-03-14 15h56.07.240309 -0700,
test,inconsistent,6,red,yellow,word,z,800,2000,104,45,1,z,1,0.9879568000033032,None,1,45,104,5,539.7879796999914,,,,,,,,,,,,,539.7733095000003,539.7879796999914,539.7879796999914,539.9878857000003,539.9878857000003,540.7893767999922,z,1,0.9879568000033032,None,5.970763608074959,540.7897258000012,540.804719199994,546.7688387999951,546.7530411999905,,,,,1234,001,2025-03-14_15h55.45.256,pleaseworkstroopcontrol,2024.2.4,59.96861242661847,2025-03-14 15h56.07.240309 -0700,
test,inconsistent,31,yellow,red,word,z,800,2000,105,46,1,z,1,1.145972400001483,None,1,46,105,30,546.7688387999951,,,,,,,,,,,,,546.7570565999922,546.7688387999951,546.7688387999951,546.9689110999898,546.9689110999898,547.9191911999951,z,1,1.145972400001483,None,1.7738781743087486,547.9195251999918,547.9360478000017,549.7013143999939,549.6851749999914,,,,,1234,001,2025-03-14_15h55.45.256,pleaseworkstroopcontrol,2024.2.4,59.96861242661847,2025-03-14 15h56.07.240309 -0700,
test,consistent,7,green,green,word,m,800,2000,106,47,1,m,1,0.8192999000020791,None,1,47,106,6,549.7013143999939,,,,,,,,,,,,,549.6877820999944,549.7013143999939,549.7013143999939,549.9011866999936,549.9011866999936,550.5355013999942,m,1,0.8192999000020791,None,2.702626193025809,550.5362550999998,550.550977699997,553.2499582999881,553.2343422999984,,,,,1234,001,2025-03-14_15h55.45.256,pleaseworkstroopcontrol,2024.2.4,59.96861242661847,2025-03-14 15h56.07.240309 -0700,
test,inconsistent,52,red,green,word,z,800,2000,107,48,1,z,1,1.3950870999979088,None,1,48,107,51,553.2499582999881,,,,,,,,,,,,,553.2376634999964,553.2499582999881,553.2499582999881,553.4498011999967,553.4498011999967,554.6510382999986,z,1,1.3950870999979088,None,3.0903411481935645,554.6513784999988,554.6661964999948,557.748363199993,557.7322465999896,,,,,1234,001,2025-03-14_15h55.45.256,pleaseworkstroopcontrol,2024.2.4,59.96861242661847,2025-03-14 15h56.07.240309 -0700,
test,consistent,46,yellow,yellow,word,m,800,2000,108,49,1,m,1,1.006756899994798,None,1,49,108,45,557.748363199993,,,,,,,,,,,,,557.7361655999994,557.748363199993,557.748363199993,557.931605299993,557.931605299993,558.7658625999902,m,1,1.006756899994798,None,2.345909666418505,558.7662751999887,558.781236099996,561.114331299992,561.0987154999893,,,,,1234,001,2025-03-14_15h55.45.256,pleaseworkstroopcontrol,2024.2.4,59.96861242661847,2025-03-14 15h56.07.240309 -0700,
test,inconsistent,8,black,yellow,word,z,800,2000,109,50,1,z,1,0.773952300005476,None,1,50,109,7,561.114331299992,,,,,,,,,,,,,561.1016237000003,561.114331299992,561.114331299992,561.3137245999969,561.3137245999969,561.8982658999885,z,1,0.773952300005476,None,4.410547663660035,561.8985973999952,561.9137852999993,566.3120782999904,566.2966077000019,,,,,1234,001,2025-03-14_15h55.45.256,pleaseworkstroopcontrol,2024.2.4,59.96861242661847,2025-03-14 15h56.07.240309 -0700,
test,consistent,23,green,green,word,m,800,2000,110,51,1,m,1,0.7743422999919858,None,1,51,110,22,566.3120782999904,,,,,,,,,,,,,566.2999532999966,566.3120782999904,566.3120782999904,566.5119787000003,566.5119787000003,567.0965748000017,m,1,0.7743422999919858,None,3.1684830197612444,567.0969293999951,567.1121896999975,570.2776710999897,570.2612515999936,,,,,1234,001,2025-03-14_15h55.45.256,pleaseworkstroopcontrol,2024.2.4,59.96861242661847,2025-03-14 15h56.07.240309 -0700,
test,inconsistent,9,red,blue,word,z,800,2000,111,52,1,z,1,0.8975922999961767,None,1,52,111,8,570.2776710999897,,,,,,,,,,,,,570.2644098999881,570.2776710999897,570.2776710999897,570.4607367999997,570.4607367999997,571.1783157999889,z,1,0.8975922999961767,None,3.624196365566756,571.1786764999997,571.193887299989,574.8091017999977,574.7932482999895,,,,,1234,001,2025-03-14_15h55.45.256,pleaseworkstroopcontrol,2024.2.4,59.96861242661847,2025-03-14 15h56.07.240309 -0700,
test,inconsistent,50,yellow,green,word,z,800,2000,112,53,1,z,1,1.0317805999948177,None,1,53,112,49,574.8091017999977,,,,,,,,,,,,,574.7964638999983,574.8091017999977,574.8091017999977,574.9926532999962,574.9926532999962,575.8431775999925,z,1,1.0317805999948177,None,3.521113185175705,575.8441631999885,575.8590222999919,579.3741976000019,579.3582137999911,,,,,1234,001,2025-03-14_15h55.45.256,pleaseworkstroopcontrol,2024.2.4,59.96861242661847,2025-03-14 15h56.07.240309 -0700,
test,consistent,40,yellow,yellow,word,m,800,2000,113,54,1,m,1,1.145207500012475,None,1,54,113,39,579.3741976000019,,,,,,,,,,,,,579.3589673999959,579.3741976000019,579.3741976000019,579.5575109999918,579.5575109999918,580.5248683999962,m,1,1.145207500012475,None,5.098264715896313,580.5252540999936,580.5405639999954,585.6222143999912,585.606546199997,,,,,1234,001,2025-03-14_15h55.45.256,pleaseworkstroopcontrol,2024.2.4,59.96861242661847,2025-03-14 15h56.07.240309 -0700,
test,inconsistent,13,purple,red,word,z,800,2000,114,55,1,z,1,0.7735820000089006,None,1,55,114,12,585.6222143999912,,,,,,,,,,,,,585.6092104999989,585.6222143999912,585.6222143999912,585.8219774999889,585.8219774999889,586.406226799998,z,1,0.7735820000089006,None,2.092108251188802,586.4066157999914,586.4218676999881,588.504405899992,588.4885369999975,,,,,1234,001,2025-03-14_15h55.45.256,pleaseworkstroopcontrol,2024.2.4,59.96861242661847,2025-03-14 15h56.07.240309 -0700,
test,inconsistent,5,orange,blue,word,z,800,2000,115,56,1,z,1,0.8936026000010315,None,1,56,115,4,588.504405899992,,,,,,,,,,,,,588.4928658999997,588.504405899992,588.504405899992,588.6879026999959,588.6879026999959,589.4058101999981,z,1,0.8936026000010315,None,1.6776003416325105,589.4062656999886,589.4209573999979,591.0873867999908,591.070767799989,,,,,1234,001,2025-03-14_15h55.45.256,pleaseworkstroopcontrol,2024.2.4,59.96861242661847,2025-03-14 15h56.07.240309 -0700,
test,consistent,49,yellow,yellow,word,m,800,2000,116,57,1,m,1,0.6453318999992916,None,1,57,116,48,591.0873867999908,,,,,,,,,,,,,591.0739330999932,591.0873867999908,591.0873867999908,591.270253900002,591.270253900002,591.7375259999972,m,1,0.6453318999992916,None,1.3694592736986124,591.7378622999968,591.7532820999913,593.1194901999988,593.1034127000021,,,,,1234,001,2025-03-14_15h55.45.256,pleaseworkstroopcontrol,2024.2.4,59.96861242661847,2025-03-14 15h56.07.240309 -0700,
test,consistent,51,red,red,word,m,800,2000,117,58,1,z,0,0.9249409000040032,None,1,58,117,50,593.1194901999988,,,,,,,,,,,,,593.1062797999912,593.1194901999988,593.1194901999988,593.3030272999895,593.3030272999895,594.05355099999,z,0,0.9249409000040032,None,4.748802384365239,594.0539709000004,594.0691532999917,598.8176971999928,598.802209299989,,,,,1234,001,2025-03-14_15h55.45.256,pleaseworkstroopcontrol,2024.2.4,59.96861242661847,2025-03-14 15h56.07.240309 -0700,
test,inconsistent,24,blue,green,word,z,800,2000,118,0,2,z,1,0.778340599994408,None,2,0,118,23,598.8176971999928,,,,,,,,,,,,,598.8050068000011,598.8176971999928,598.8176971999928,599.0173982999986,599.0173982999986,599.6022001999954,z,1,0.778340599994408,None,4.756885475534859,599.6026162999915,599.6176103999896,604.3656937999913,604.3496001000021,,,,,1234,001,2025-03-14_15h55.45.256,pleaseworkstroopcontrol,2024.2.4,59.96861242661847,2025-03-14 15h56.07.240309 -0700,
test,consistent,23,green,green,word,m,800,2000,119,1,2,m,1,1.1047878000099445,None,2,1,119,22,604.3656937999913,,,,,,,,,,,,,604.3525310999976,604.3656937999913,604.3656937999913,604.5488561999955,604.5488561999955,605.4832954000012,m,1,1.1047878000099445,None,1.9525131156502298,605.4836836999893,605.4989826999954,607.4480058999907,607.431919900002,,,,,1234,001,2025-03-14_15h55.45.256,pleaseworkstroopcontrol,2024.2.4,59.96861242661847,2025-03-14 15h56.07.240309 -0700,
test,inconsistent,42,green,yellow,word,z,800,2000,120,2,2,z,1,1.0347236999950837,None,2,2,120,41,607.4480058999907,,,,,,,,,,,,,607.4326850999933,607.4480058999907,607.4480058999907,607.6312507999974,607.6312507999974,608.5001271999936,z,1,1.0347236999950837,None,1.0574273007118997,608.5008511999913,608.5144181999931,609.5639167999907,609.5481595000019,,,,,1234,001,2025-03-14_15h55.45.256,pleaseworkstroopcontrol,2024.2.4,59.96861242661847,2025-03-14 15h56.07.240309 -0700,
test,consistent,40,yellow,yellow,word,m,800,2000,121,3,2,m,1,0.6843664000043646,None,2,3,121,39,609.5639167999907,,,,,,,,,,,,,609.5515596999903,609.5639167999907,609.5639167999907,609.7649537999969,609.7649537999969,610.2647009999928,m,1,0.6843664000043646,None,2.8631244735835715,610.2651647999883,610.2803710000007,613.129852500002,613.1133242999931,,,,,1234,001,2025-03-14_15h55.45.256,pleaseworkstroopcontrol,2024.2.4,59.96861242661847,2025-03-14 15h56.07.240309 -0700,
test,inconsistent,3,blue,red,word,z,800,2000,122,4,2,z,1,0.9717735999875003,None,2,4,122,2,613.129852500002,,,,,,,,,,,,,613.1161307000002,613.129852500002,613.129852500002,613.312628899992,613.312628899992,614.1135850999999,z,1,0.9717735999875003,None,4.770613333587804,614.1141011,614.1293548999965,618.8939557999984,618.8779453999887,,,,,1234,001,2025-03-14_15h55.45.256,pleaseworkstroopcontrol,2024.2.4,59.96861242661847,2025-03-14 15h56.07.240309 -0700,
test,inconsistent,39,red,yellow,word,z,800,2000,123,5,2,z,1,0.8309556000021985,None,2,5,123,38,618.8939557999984,,,,,,,,,,,,,618.8802844999882,618.8939557999984,618.8939557999984,619.0774564000021,619.0774564000021,619.7286628000002,z,1,0.8309556000021985,None,2.219662741256691,619.7298842000018,619.7437402999931,621.9596903999918,621.9442380999972,,,,,1234,001,2025-03-14_15h55.45.256,pleaseworkstroopcontrol,2024.2.4,59.96861242661847,2025-03-14 15h56.07.240309 -0700,
test,inconsistent,16,red,green,word,z,800,2000,124,6,2,z,1,1.138793700010865,None,2,6,124,15,621.9596903999918,,,,,,,,,,,,,621.9450151999918,621.9596903999918,621.9596903999918,622.159587999995,622.159587999995,623.1102785999974,z,1,1.138793700010865,None,2.286008063180883,623.1107377000008,623.1261291999981,625.4085971999884,625.3926475999906,,,,,1234,001,2025-03-14_15h55.45.256,pleaseworkstroopcontrol,2024.2.4,59.96861242661847,2025-03-14 15h56.07.240309 -0700,
test,inconsistent,19,green,red,word,z,800,2000,125,7,2,z,1,0.7884811999974772,None,2,7,125,18,625.4085971999884,,,,,,,,,,,,,625.3969491999887,625.4085971999884,625.4085971999884,625.5917699999991,625.5917699999991,626.2091270999954,z,1,0.7884811999974772,None,1.0789680519230722,626.2094881999947,626.2248212999984,627.2912530999893,627.275150299989,,,,,1234,001,2025-03-14_15h55.45.256,pleaseworkstroopcontrol,2024.2.4,59.96861242661847,2025-03-14 15h56.07.240309 -0700,
test,inconsistent,37,red,green,word,z,800,2000,126,8,2,z,1,0.8027094999997644,None,2,8,126,36,627.2912530999893,,,,,,,,,,,,,627.2777116999932,627.2912530999893,627.2912530999893,627.4747102999972,627.4747102999972,628.1088524999941,z,1,0.8027094999997644,None,1.3931953533687116,628.1092819999903,628.1251250999921,629.5071712999925,629.491678499995,,,,,1234,001,2025-03-14_15h55.45.256,pleaseworkstroopcontrol,2024.2.4,59.96861242661847,2025-03-14 15h56.07.240309 -0700,
test,inconsistent,15,yellow,red,word,z,800,2000,127,9,2,z,1,0.7178044000029331,None,2,9,127,14,629.5071712999925,,,,,,,,,,,,,629.4972276999906,629.5071712999925,629.5071712999925,629.7068849999923,629.7068849999923,630.2412039999908,z,1,0.7178044000029331,None,3.6989597175133047,630.2416898999945,630.2567061000009,633.9558255000011,633.939489299999,,,,,1234,001,2025-03-14_15h55.45.256,pleaseworkstroopcontrol,2024.2.4,59.96861242661847,2025-03-14 15h56.07.240309 -0700,
test,inconsistent,44,green,red,word,z,800,2000,128,10,2,z,1,0.8369690999970771,None,2,10,128,43,633.9558255000011,,,,,,,,,,,,,633.9426911999908,633.9558255000011,633.9558255000011,634.1554592999892,634.1554592999892,634.8061372999946,z,1,0.8369690999970771,None,3.081240079964213,634.8064708999882,634.8219258999889,637.8875942000013,637.8719177999883,,,,,1234,001,2025-03-14_15h55.45.256,pleaseworkstroopcontrol,2024.2.4,59.96861242661847,2025-03-14 15h56.07.240309 -0700,
test,inconsistent,13,purple,red,word,z,800,2000,129,11,2,z,1,1.3384089000028325,None,2,11,129,12,637.8875942000013,,,,,,,,,,,,,637.876013000001,637.8875942000013,637.8875942000013,638.0709789999964,638.0709789999964,639.2379989999899,z,1,1.3384089000028325,None,5.655088027481088,639.2383716999902,639.2536458999966,644.9017390999943,644.8860080000013,,,,,1234,001,2025-03-14_15h55.45.256,pleaseworkstroopcontrol,2024.2.4,59.96861242661847,2025-03-14 15h56.07.240309 -0700,
test,inconsistent,20,red,green,word,z,800,2000,130,12,2,z,1,1.0872732999996515,None,2,12,130,19,644.9017390999943,,,,,,,,,,,,,644.889949199991,644.9017390999943,644.9017390999943,645.1016423999972,645.1016423999972,646.0023671999952,z,1,1.0872732999996515,None,2.550750862477887,646.002745299993,646.0179411999998,648.5674927999935,648.5515822999878,,,,,1234,001,2025-03-14_15h55.45.256,pleaseworkstroopcontrol,2024.2.4,59.96861242661847,2025-03-14 15h56.07.240309 -0700,
test,consistent,43,green,green,word,m,800,2000,131,13,2,m,1,0.7514898999943398,None,2,13,131,42,648.5674927999935,,,,,,,,,,,,,648.554996299994,648.5674927999935,648.5674927999935,648.7672330999922,648.7672330999922,649.3342877999967,m,1,0.7514898999943398,None,2.291374502694143,649.3346313999937,649.3501103000017,651.6328221000003,651.6169209999935,,,,,1234,001,2025-03-14_15h55.45.256,pleaseworkstroopcontrol,2024.2.4,59.96861242661847,2025-03-14 15h56.07.240309 -0700,
test,inconsistent,17,yellow,green,word,z,800,2000,132,14,2,z,1,1.2754455000103917,None,2,14,132,16,651.6328221000003,,,,,,,,,,,,,651.6211060999922,651.6328221000003,651.6328221000003,651.8326675999997,651.8326675999997,652.9170011999959,z,1,1.2754455000103917,None,4.3428118000973726,652.917349299998,652.932269500001,657.2641672999889,657.248287800001,,,,,1234,001,2025-03-14_15h55.45.256,pleaseworkstroopcontrol,2024.2.4,59.96861242661847,2025-03-14 15h56.07.240309 -0700,
test,inconsistent,21,black,yellow,word,z,800,2000,133,15,2,z,1,0.6816989000071771,None,2,15,133,20,657.2641672999889,,,,,,,,,,,,,657.2513227000018,657.2641672999889,657.2641672999889,657.4641258999909,657.4641258999909,657.9481925,z,1,0.6816989000071771,None,1.4957850857400647,657.9486497999897,657.9639309999911,659.4466953999945,659.4307688999979,,,,,1234,001,2025-03-14_15h55.45.256,pleaseworkstroopcontrol,2024.2.4,59.96861242661847,2025-03-14 15h56.07.240309 -0700,
test,inconsistent,4,red,green,word,z,800,2000,134,16,2,z,1,1.2679865000100108,None,2,16,134,3,659.4466953999945,,,,,,,,,,,,,659.4334621999878,659.4466953999945,659.4466953999945,659.6467906999897,659.6467906999897,660.7311090000003,z,1,1.2679865000100108,None,1.1008308757418763,660.731452699998,660.7462866999995,661.8458871999901,661.8299665999948,,,,,1234,001,2025-03-14_15h55.45.256,pleaseworkstroopcontrol,2024.2.4,59.96861242661847,2025-03-14 15h56.07.240309 -0700,
test,inconsistent,2,yellow,green,word,z,800,2000,135,17,2,z,1,0.9606113000045298,None,2,17,135,1,661.8458871999901,,,,,,,,,,,,,661.8327480000007,661.8458871999901,661.8458871999901,662.0457781000005,662.0457781000005,662.8152522000019,z,1,0.9606113000045298,None,4.426120245834888,662.8160685999901,662.8290578000015,667.244443299991,667.2281781999918,,,,,1234,001,2025-03-14_15h55.45.256,pleaseworkstroopcontrol,2024.2.4,59.96861242661847,2025-03-14 15h56.07.240309 -0700,
test,inconsistent,9,red,blue,word,z,800,2000,136,18,2,z,1,1.151645300007658,None,2,18,136,8,667.244443299991,,,,,,,,,,,,,667.2315798999916,667.244443299991,667.244443299991,667.4274964999931,667.4274964999931,668.4114994999982,z,1,1.151645300007658,None,3.233659137340509,668.4118499999895,668.4271613000019,671.6594460999913,671.6440547999955,,,,,1234,001,2025-03-14_15h55.45.256,pleaseworkstroopcontrol,2024.2.4,59.96861242661847,2025-03-14 15h56.07.240309 -0700,
test,inconsistent,50,yellow,green,word,z,800,2000,137,19,2,z,1,0.8151552999916021,None,2,19,137,49,671.6594460999913,,,,,,,,,,,,,671.6515567999886,671.6594460999913,671.6594460999913,671.8594199999934,671.8594199999934,672.4766398999927,z,1,0.8151552999916021,None,4.2061023049040145,672.4770734999911,672.492199699991,676.690766899992,676.6747699999978,,,,,1234,001,2025-03-14_15h55.45.256,pleaseworkstroopcontrol,2024.2.4,59.96861242661847,2025-03-14 15h56.07.240309 -0700,
test,inconsistent,26,green,yellow,word,z,800,2000,138,20,2,z,1,1.1104340000019874,None,2,20,138,25,676.690766899992,,,,,,,,,,,,,676.6780825999886,676.690766899992,676.690766899992,676.874316100002,676.874316100002,677.8087797999906,z,1,1.1104340000019874,None,5.119659308189049,677.8092100999929,677.823716599989,682.9389959999971,682.9228531999979,,,,,1234,001,2025-03-14_15h55.45.256,pleaseworkstroopcontrol,2024.2.4,59.96861242661847,2025-03-14 15h56.07.240309 -0700,
test,consistent,36,red,red,word,m,800,2000,139,21,2,m,1,1.029136599987396,None,2,21,139,35,682.9389959999971,,,,,,,,,,,,,682.9260097999941,682.9389959999971,682.9389959999971,683.1386287999921,683.1386287999921,683.9729917999939,m,1,1.029136599987396,None,3.3467441171070402,683.9734376999986,683.9890682999976,687.3210166999925,687.305060499988,,,,,1234,001,2025-03-14_15h55.45.256,pleaseworkstroopcontrol,2024.2.4,59.96861242661847,2025-03-14 15h56.07.240309 -0700,
test,inconsistent,25,red,blue,word,z,800,2000,140,22,2,z,1,0.829544199994416,None,2,22,140,24,687.3210166999925,,,,,,,,,,,,,687.3062018999917,687.3210166999925,687.3210166999925,687.5205673000019,687.5205673000019,688.1559587999946,z,1,0.829544199994416,None,2.860189837115927,688.1564165000018,688.1703347000002,691.0193704999983,691.0038484999968,,,,,1234,001,2025-03-14_15h55.45.256,pleaseworkstroopcontrol,2024.2.4,59.96861242661847,2025-03-14 15h56.07.240309 -0700,
test,inconsistent,11,green,red,word,z,800,2000,141,23,2,z,1,1.1620549999934155,None,2,23,141,10,691.0193704999983,,,,,,,,,,,,,691.0097970999923,691.0193704999983,691.0193704999983,691.2191784999886,691.2191784999886,692.1869583999942,z,1,1.1620549999934155,None,2.814860585303944,692.1873248999909,692.2022671000013,695.0012094999984,694.9851752999966,,,,,1234,001,2025-03-14_15h55.45.256,pleaseworkstroopcontrol,2024.2.4,59.96861242661847,2025-03-14 15h56.07.240309 -0700,
test,inconsistent,56,green,red,word,z,800,2000,142,24,2,z,1,0.7384747000032803,None,2,24,142,55,695.0012094999984,,,,,,,,,,,,,694.9858304999943,695.0012094999984,695.0012094999984,695.1842059999908,695.1842059999908,695.7518856999959,z,1,0.7384747000032803,None,1.1461633604178454,695.7522545999964,695.7676091999892,696.9006573999941,696.8849956999911,,,,,1234,001,2025-03-14_15h55.45.256,pleaseworkstroopcontrol,2024.2.4,59.96861242661847,2025-03-14 15h56.07.240309 -0700,
test,consistent,54,green,green,word,m,800,2000,143,25,2,m,1,0.6670680000097491,None,2,25,143,53,696.9006573999941,,,,,,,,,,,,,696.8858244000003,696.9006573999941,696.9006573999941,697.1005831999937,697.1005831999937,697.5694163000007,m,1,0.6670680000097491,None,3.4462704888876896,697.5700286999927,697.5839992999972,701.016257299998,700.9999627999932,,,,,1234,001,2025-03-14_15h55.45.256,pleaseworkstroopcontrol,2024.2.4,59.96861242661847,2025-03-14 15h56.07.240309 -0700,
test,consistent,1,red,red,word,m,800,2000,144,26,2,m,1,1.2693020000006072,None,2,26,144,0,701.016257299998,,,,,,,,,,,,,701.0029210999928,701.016257299998,701.016257299998,701.2158254999958,701.2158254999958,702.3002373999916,m,1,1.2693020000006072,None,1.4471395615936462,702.3006664999994,702.3155947999912,703.7485022999899,703.7323920999916,,,,,1234,001,2025-03-14_15h55.45.256,pleaseworkstroopcontrol,2024.2.4,59.96861242661847,2025-03-14 15h56.07.240309 -0700,
test,consistent,49,yellow,yellow,word,m,800,2000,145,27,2,m,1,1.1088249000022188,None,2,27,145,48,703.7485022999899,,,,,,,,,,,,,703.7363482999936,703.7485022999899,703.7485022999899,703.9486498999904,703.9486498999904,704.8672468000004,m,1,1.1088249000022188,None,3.974506129384027,704.8676410999906,704.8813063999987,708.8464544000017,708.8303963999933,,,,,1234,001,2025-03-14_15h55.45.256,pleaseworkstroopcontrol,2024.2.4,59.96861242661847,2025-03-14 15h56.07.240309 -0700,
test,consistent,18,red,red,word,m,800,2000,146,28,2,m,1,0.9201484999939566,None,2,28,146,17,708.8464544000017,,,,,,,,,,,,,708.8332643999893,708.8464544000017,708.8464544000017,709.0297229999996,709.0297229999996,709.7810293999937,m,1,0.9201484999939566,None,3.2902335749906237,709.7815562999895,709.7962642999919,713.0782883999927,713.0621962000005,,,,,1234,001,2025-03-14_15h55.45.256,pleaseworkstroopcontrol,2024.2.4,59.96861242661847,2025-03-14 15h56.07.240309 -0700,
test,inconsistent,5,orange,blue,word,z,800,2000,147,29,2,z,1,0.8347342999913963,None,2,29,147,4,713.0782883999927,,,,,,,,,,,,,713.064770500001,713.0782883999927,713.0782883999927,713.2615835999895,713.2615835999895,713.9290680999984,z,1,0.8347342999913963,None,5.418583349837008,713.9294469000015,713.9447498999943,719.3594390999933,719.343796199988,,,,,1234,001,2025-03-14_15h55.45.256,pleaseworkstroopcontrol,2024.2.4,59.96861242661847,2025-03-14 15h56.07.240309 -0700,
test,inconsistent,6,red,yellow,word,z,800,2000,148,30,2,z,1,0.9827998999971896,None,2,30,148,5,719.3594390999933,,,,,,,,,,,,,719.3462945999927,719.3594390999933,719.3594390999933,719.559367599999,719.559367599999,720.3437643999932,z,1,0.9827998999971896,None,5.653870799031041,720.3441394999973,720.3590839999961,726.007489399999,725.9910780999926,,,,,1234,001,2025-03-14_15h55.45.256,pleaseworkstroopcontrol,2024.2.4,59.96861242661847,2025-03-14 15h56.07.240309 -0700,
test,consistent,45,red,red,word,m,800,2000,149,31,2,m,1,0.6602268000133336,None,2,31,149,44,726.007489399999,,,,,,,,,,,,,725.9920270000002,726.007489399999,726.007489399999,726.1904398999905,726.1904398999905,726.6750311999931,m,1,0.6602268000133336,None,1.1231697513695167,726.6755247999972,726.6906391999946,727.8068157999951,727.7904814999929,,,,,1234,001,2025-03-14_15h55.45.256,pleaseworkstroopcontrol,2024.2.4,59.96861242661847,2025-03-14 15h56.07.240309 -0700,
test,consistent,38,blue,blue,word,m,800,2000,150,32,2,m,1,0.7075286000035703,None,2,32,150,37,727.8068157999951,,,,,,,,,,,,,727.7928589999938,727.8068157999951,727.8068157999951,727.9898007000011,727.9898007000011,728.5252210999897,m,1,0.7075286000035703,None,2.3638220425035534,728.5259598999983,728.5397133999941,730.8890259999898,730.8733000999928,,,,,1234,001,2025-03-14_15h55.45.256,pleaseworkstroopcontrol,2024.2.4,59.96861242661847,2025-03-14 15h56.07.240309 -0700,
test,inconsistent,55,green,yellow,word,z,800,2000,151,33,2,z,1,1.0075325000070734,None,2,33,151,54,730.8890259999898,,,,,,,,,,,,,730.8786306999973,730.8890259999898,730.8890259999898,731.0888737999921,731.0888737999921,731.9068461999996,z,1,1.0075325000070734,None,3.6072038322779267,731.9071962999878,731.9219593999878,735.5211194000003,735.5049814999948,,,,,1234,001,2025-03-14_15h55.45.256,pleaseworkstroopcontrol,2024.2.4,59.96861242661847,2025-03-14 15h56.07.240309 -0700,
test,consistent,34,green,green,word,m,800,2000,152,34,2,m,1,0.7033916999935172,None,2,34,152,33,735.5211194000003,,,,,,,,,,,,,735.5059171999892,735.5211194000003,735.5211194000003,735.720567700002,735.720567700002,736.2377969999943,m,1,0.7033916999935172,None,2.455837873225503,736.23813469999,736.2536505999888,738.7029203999991,738.6871868000017,,,,,1234,001,2025-03-14_15h55.45.256,pleaseworkstroopcontrol,2024.2.4,59.96861242661847,2025-03-14 15h56.07.240309 -0700,
test,consistent,28,yellow,yellow,word,m,800,2000,153,35,2,m,1,0.8115562000020873,None,2,35,153,27,738.7029203999991,,,,,,,,,,,,,738.6899609999964,738.7029203999991,738.7029203999991,738.9028092999943,738.9028092999943,739.520414300001,m,1,0.8115562000020873,None,5.881297791120399,739.5209252999921,739.5359256999946,745.4175801999954,745.4011304000014,,,,,1234,001,2025-03-14_15h55.45.256,pleaseworkstroopcontrol,2024.2.4,59.96861242661847,2025-03-14 15h56.07.240309 -0700,
test,inconsistent,30,blue,red,word,z,800,2000,154,36,2,z,1,0.6376870000094641,None,2,36,154,29,745.4175801999954,,,,,,,,,,,,,745.4040417999931,745.4175801999954,745.4175801999954,745.6005342999997,745.6005342999997,746.0683520999883,z,1,0.6376870000094641,None,3.142127819044524,746.0686657999904,746.0838064999989,749.2158221999998,749.2000864000001,,,,,1234,001,2025-03-14_15h55.45.256,pleaseworkstroopcontrol,2024.2.4,59.96861242661847,2025-03-14 15h56.07.240309 -0700,
test,inconsistent,10,green,yellow,word,z,800,2000,155,37,2,z,1,1.1605506999912905,None,2,37,155,9,749.2158221999998,,,,,,,,,,,,,749.2038920999912,749.2158221999998,749.2158221999998,749.4159248999931,749.4159248999931,750.3831370999978,z,1,1.1605506999912905,None,4.460743089718932,750.3835426000005,750.3988773000019,754.8477654000017,754.8315809999913,,,,,1234,001,2025-03-14_15h55.45.256,pleaseworkstroopcontrol,2024.2.4,59.96861242661847,2025-03-14 15h56.07.240309 -0700,
test,inconsistent,59,yellow,green,word,z,800,2000,156,38,2,z,1,0.9090484000043944,None,2,38,156,58,754.8477654000017,,,,,,,,,,,,,754.835362599988,754.8477654000017,754.8477654000017,755.0472328999895,755.0472328999895,755.764826899991,z,1,0.9090484000043944,None,2.074524610580502,755.7652278999885,755.7803822999995,757.8464209999947,757.8305651999981,,,,,1234,001,2025-03-14_15h55.45.256,pleaseworkstroopcontrol,2024.2.4,59.96861242661847,2025-03-14 15h56.07.240309 -0700,
test,consistent,35,red,red,word,m,800,2000,157,39,2,m,1,0.63025679999555,None,2,39,157,34,757.8464209999947,,,,,,,,,,,,,757.8329051999899,757.8464209999947,757.8464209999947,758.0301034000004,758.0301034000004,758.4814921999932,m,1,0.63025679999555,None,4.547953860494077,758.4818415999907,758.4961167000001,763.0446378999914,763.0286887999973,,,,,1234,001,2025-03-14_15h55.45.256,pleaseworkstroopcontrol,2024.2.4,59.96861242661847,2025-03-14 15h56.07.240309 -0700,
test,inconsistent,32,orange,green,word,z,800,2000,158,40,2,z,1,0.9311129999987315,None,2,40,158,31,763.0446378999914,,,,,,,,,,,,,763.0329870999994,763.0446378999914,763.0446378999914,763.2444244999933,763.2444244999933,763.9788954999967,z,1,0.9311129999987315,None,5.570573831528537,763.9793400999915,763.9943048999994,769.5588768000016,769.543144700001,,,,,1234,001,2025-03-14_15h55.45.256,pleaseworkstroopcontrol,2024.2.4,59.96861242661847,2025-03-14 15h56.07.240309 -0700,
test,inconsistent,14,yellow,blue,word,z,800,2000,159,41,2,z,1,0.8133991999930004,None,2,41,159,13,769.5588768000016,,,,,,,,,,,,,769.5464196999965,769.5588768000016,769.5588768000016,769.7587869999988,769.7587869999988,770.3767026999994,z,1,0.8133991999930004,None,5.013650049424033,770.3771022000001,770.3919934000005,775.3905388999992,775.3740199000022,,,,,1234,001,2025-03-14_15h55.45.256,pleaseworkstroopcontrol,2024.2.4,59.96861242661847,2025-03-14 15h56.07.240309 -0700,
test,inconsistent,27,green,red,word,z,800,2000,160,42,2,z,1,0.783811200002674,None,2,42,160,26,775.3905388999992,,,,,,,,,,,,,775.3771883000009,775.3905388999992,775.3905388999992,775.573894000001,775.573894000001,776.1913740000018,z,1,0.783811200002674,None,1.6663391523300182,776.1918293999915,776.2066320000013,777.8727872000018,777.8570111000008,,,,,1234,001,2025-03-14_15h55.45.256,pleaseworkstroopcontrol,2024.2.4,59.96861242661847,2025-03-14 15h56.07.240309 -0700,
test,consistent,41,green,green,word,m,800,2000,161,43,2,m,1,0.7412748000060674,None,2,43,161,40,777.8727872000018,,,,,,,,,,,,,777.8578194000002,777.8727872000018,777.8727872000018,778.0559806999954,778.0559806999954,778.6238003999897,m,1,0.7412748000060674,None,1.7086236063936802,778.6242003999942,778.6400490999949,780.3386343999882,780.3237034999911,,,,,1234,001,2025-03-14_15h55.45.256,pleaseworkstroopcontrol,2024.2.4,59.96861242661847,2025-03-14 15h56.07.240309 -0700,
test,inconsistent,33,yellow,green,word,z,800,2000,162,44,2,z,1,0.9698399000044446,None,2,44,162,32,780.3386343999882,,,,,,,,,,,,,780.3269841000001,780.3386343999882,780.3386343999882,780.5388386999985,780.5388386999985,781.3225109999912,z,1,0.9698399000044446,None,5.145932304663458,781.3228820999939,781.3381187999912,786.4698365999939,786.4539346999954,,,,,1234,001,2025-03-14_15h55.45.256,pleaseworkstroopcontrol,2024.2.4,59.96861242661847,2025-03-14 15h56.07.240309 -0700,
test,inconsistent,29,green,blue,word,z,800,2000,163,45,2,z,1,0.8083458999899449,None,2,45,163,28,786.4698365999939,,,,,,,,,,,,,786.4567271999986,786.4698365999939,786.4698365999939,786.6529663999972,786.6529663999972,787.2872871,z,1,0.8083458999899449,None,4.185131659662959,787.287625500001,787.3027747000015,791.4849116999976,791.4687316999916,,,,,1234,001,2025-03-14_15h55.45.256,pleaseworkstroopcontrol,2024.2.4,59.96861242661847,2025-03-14 15h56.07.240309 -0700,
test,inconsistent,58,yellow,red,word,z,800,2000,164,46,2,z,1,1.0075637999980245,None,2,46,164,57,791.4849116999976,,,,,,,,,,,,,791.4718682999955,791.4849116999976,791.4849116999976,791.6848030999972,791.6848030999972,792.5022639999952,z,1,1.0075637999980245,None,3.6122146168655602,792.5026310999965,792.5176544999995,796.1168008999957,796.100738699999,,,,,1234,001,2025-03-14_15h55.45.256,pleaseworkstroopcontrol,2024.2.4,59.96861242661847,2025-03-14 15h56.07.240309 -0700,
test,inconsistent,52,red,green,word,z,800,2000,165,47,2,z,1,1.1273993999930099,None,2,47,165,51,796.1168008999957,,,,,,,,,,,,,796.1032994999987,796.1168008999957,796.1168008999957,796.3162936000008,796.3162936000008,797.2509136000008,z,1,1.1273993999930099,None,2.3846680094848955,797.251423499998,797.2661789999984,799.6493861999916,799.6325170999917,,,,,1234,001,2025-03-14_15h55.45.256,pleaseworkstroopcontrol,2024.2.4,59.96861242661847,2025-03-14 15h56.07.240309 -0700,
test,consistent,57,yellow,yellow,word,m,800,2000,166,48,2,m,1,0.7053096999879926,None,2,48,166,56,799.6493861999916,,,,,,,,,,,,,799.6355566999991,799.6493861999916,799.6493861999916,799.8318908999936,799.8318908999936,800.3662598999945,m,1,0.7053096999879926,None,5.512328437083088,800.3667048999923,800.3818638999946,805.8800588000013,805.8647695999971,,,,,1234,001,2025-03-14_15h55.45.256,pleaseworkstroopcontrol,2024.2.4,59.96861242661847,2025-03-14 15h56.07.240309 -0700,
test,inconsistent,8,black,yellow,word,z,800,2000,167,49,2,z,1,0.7194491999980528,None,2,49,167,7,805.8800588000013,,,,,,,,,,,,,805.8684435999894,805.8800588000013,805.8800588000013,806.0798864999961,806.0798864999961,806.6141193999938,z,1,0.7194491999980528,None,2.5962872886865096,806.6145936999965,806.6296349999902,809.2119749999983,809.1959065999981,,,,,1234,001,2025-03-14_15h55.45.256,pleaseworkstroopcontrol,2024.2.4,59.96861242661847,2025-03-14 15h56.07.240309 -0700,
test,consistent,12,yellow,yellow,word,m,800,2000,168,50,2,m,1,0.8455642000044463,None,2,50,168,11,809.2119749999983,,,,,,,,,,,,,809.1986930999992,809.2119749999983,809.2119749999983,809.3951902999979,809.3951902999979,810.0629167000006,m,1,0.8455642000044463,None,4.383530538853876,810.0633465999999,810.0783436999918,814.4601806999999,814.4443134999892,,,,,1234,001,2025-03-14_15h55.45.256,pleaseworkstroopcontrol,2024.2.4,59.96861242661847,2025-03-14 15h56.07.240309 -0700,
test,inconsistent,22,red,yellow,word,z,800,2000,169,51,2,z,1,1.2540681999962544,None,2,51,169,21,814.4601806999999,,,,,,,,,,,,,814.4468595999933,814.4601806999999,814.4601806999999,814.6599939000007,814.6599939000007,815.7271853999991,z,1,1.2540681999962544,None,3.222708951425596,815.727542099994,815.7432550999947,818.9587365999905,818.9426487999881,,,,,1234,001,2025-03-14_15h55.45.256,pleaseworkstroopcontrol,2024.2.4,59.96861242661847,2025-03-14 15h56.07.240309 -0700,
test,consistent,46,yellow,yellow,word,m,800,2000,170,52,2,m,1,1.913243800008786,None,2,52,170,45,818.9587365999905,,,,,,,,,,,,,818.9455868999939,818.9587365999905,818.9587365999905,819.1418895999959,819.1418895999959,820.8758952999924,m,1,1.913243800008786,None,3.852062866347667,820.8763016000012,820.8912808000023,824.7401505000016,824.7242866000015,,,,,1234,001,2025-03-14_15h55.45.256,pleaseworkstroopcontrol,2024.2.4,59.96861242661847,2025-03-14 15h56.07.240309 -0700,
test,inconsistent,53,red,yellow,word,z,800,2000,171,53,2,z,1,1.286873299992294,None,2,53,171,52,824.7401505000016,,,,,,,,,,,,,824.7268122999958,824.7401505000016,824.7401505000016,824.923384099995,824.923384099995,826.0408023999917,z,1,1.286873299992294,None,1.0834039348433806,826.0411616999918,826.0563580000016,827.1392506999982,827.1232220999955,,,,,1234,001,2025-03-14_15h55.45.256,pleaseworkstroopcontrol,2024.2.4,59.96861242661847,2025-03-14 15h56.07.240309 -0700,
test,inconsistent,48,yellow,red,word,z,800,2000,172,54,2,z,1,1.2099094000004698,None,2,54,172,47,827.1392506999982,,,,,,,,,,,,,827.1266076999891,827.1392506999982,827.1392506999982,827.3225378999923,827.3225378999923,828.3571518999961,z,1,1.2099094000004698,None,1.5267945998057715,828.3576368999929,828.3722819999966,829.8885624999966,829.872598899994,,,,,1234,001,2025-03-14_15h55.45.256,pleaseworkstroopcontrol,2024.2.4,59.96861242661847,2025-03-14 15h56.07.240309 -0700,
test,consistent,47,blue,blue,word,m,800,2000,173,55,2,m,1,0.7852646999963326,None,2,55,173,46,829.8885624999966,,,,,,,,,,,,,829.8752107999899,829.8885624999966,829.8885624999966,830.0884593999945,830.0884593999945,830.688593599989,m,1,0.7852646999963326,None,2.156887605263752,830.6889789999987,830.7054427999974,832.8539287000021,832.8377747999912,,,,,1234,001,2025-03-14_15h55.45.256,pleaseworkstroopcontrol,2024.2.4,59.96861242661847,2025-03-14 15h56.07.240309 -0700,
test,inconsistent,31,yellow,red,word,z,800,2000,174,56,2,z,1,1.4058072000043467,None,2,56,174,30,832.8539287000021,,,,,,,,,,,,,832.8415497999958,832.8539287000021,832.8539287000021,833.0373975999973,833.0373975999973,834.2713086000003,z,1,1.4058072000043467,None,2.2025220853846657,834.271702500002,834.2866885999974,836.4866030999983,836.4705643999914,,,,,1234,001,2025-03-14_15h55.45.256,pleaseworkstroopcontrol,2024.2.4,59.96861242661847,2025-03-14 15h56.07.240309 -0700,
test,consistent,51,red,red,word,m,800,2000,175,57,2,m,1,0.6401428999961354,None,2,57,175,50,836.4866030999983,,,,,,,,,,,,,836.4732786999957,836.4866030999983,836.4866030999983,836.685742799993,836.685742799993,837.1368785999948,m,1,0.6401428999961354,None,3.398972558701038,837.1372196000011,837.1523752999929,840.5516522999969,840.5351020999951,,,,,1234,001,2025-03-14_15h55.45.256,pleaseworkstroopcontrol,2024.2.4,59.96861242661847,2025-03-14 15h56.07.240309 -0700,
test,consistent,7,green,green,word,m,800,2000,176,58,2,m,1,0.964673499998753,None,2,58,176,6,840.5516522999969,,,,,,,,,,,,,840.537739499996,840.5516522999969,840.5516522999969,840.734464299996,840.734464299996,841.5187670000014,m,1,0.964673499998753,None,1.2773920007622932,841.5191864999942,841.5345271999977,842.800545399994,842.7848830000003,,,,,1234,001,2025-03-14_15h55.45.256,pleaseworkstroopcontrol,2024.2.4,59.96861242661847,2025-03-14 15h56.07.240309 -0700,
test,inconsistent,4,red,green,word,z,800,2000,177,0,3,z,1,1.022690900004818,None,3,0,177,3,842.800545399994,,,,,,,,,,,,,842.7883919000014,842.800545399994,842.800545399994,843.0011716000008,843.0011716000008,843.8349879000016,z,1,1.022690900004818,None,3.9025220854611185,843.8355570999993,843.8500844999944,847.7489059999934,847.7326118999918,,,,,1234,001,2025-03-14_15h55.45.256,pleaseworkstroopcontrol,2024.2.4,59.96861242661847,2025-03-14 15h56.07.240309 -0700,
test,inconsistent,44,green,red,word,z,800,2000,178,1,3,z,1,0.8794488999992609,None,3,1,178,43,847.7489059999934,,,,,,,,,,,,,847.7357365999924,847.7489059999934,847.7489059999934,847.9321721000015,847.9321721000015,848.6339923999913,z,1,0.8794488999992609,None,5.164956372392054,848.6346090000006,848.6489333999925,853.8133343999943,853.7971008000022,,,,,1234,001,2025-03-14_15h55.45.256,pleaseworkstroopcontrol,2024.2.4,59.96861242661847,2025-03-14 15h56.07.240309 -0700,
test,inconsistent,21,black,yellow,word,z,800,2000,179,2,3,z,1,1.0399283000006108,None,3,2,179,20,853.8133343999943,,,,,,,,,,,,,853.7997070999991,853.8133343999943,853.8133343999943,853.9965509999893,853.9965509999893,854.8644417999894,z,1,1.0399283000006108,None,5.813097298797602,854.8648895999941,854.8797134999913,860.6777431999944,860.6614583999908,,,,,1234,001,2025-03-14_15h55.45.256,pleaseworkstroopcontrol,2024.2.4,59.96861242661847,2025-03-14 15h56.07.240309 -0700,
test,inconsistent,3,blue,red,word,z,800,2000,180,3,3,z,1,0.806461300002411,None,3,3,180,2,860.6777431999944,,,,,,,,,,,,,860.6638296000019,860.6777431999944,860.6777431999944,860.8612093999982,860.8612093999982,861.4951767999883,z,1,0.806461300002411,None,3.333276327532422,861.4955275999964,861.5107224999956,864.8429841999896,864.8271277999884,,,,,1234,001,2025-03-14_15h55.45.256,pleaseworkstroopcontrol,2024.2.4,59.96861242661847,2025-03-14 15h56.07.240309 -0700,
test,consistent,47,blue,blue,word,m,800,2000,181,4,3,m,1,0.8753378999972483,None,3,4,181,46,864.8429841999896,,,,,,,,,,,,,864.8278164999938,864.8429841999896,864.8429841999896,865.0431353999884,865.0431353999884,865.7274314999959,m,1,0.8753378999972483,None,2.720355304788732,865.7277899999899,865.7426028999907,868.4582325999945,868.4422778000007,,,,,1234,001,2025-03-14_15h55.45.256,pleaseworkstroopcontrol,2024.2.4,59.96861242661847,2025-03-14 15h56.07.240309 -0700,
test,inconsistent,55,green,yellow,word,z,800,2000,182,5,3,z,1,1.0124229000066407,None,3,5,182,54,868.4582325999945,,,,,,,,,,,,,868.4454253000004,868.4582325999945,868.4582325999945,868.6416639999952,868.6416639999952,869.4756224000012,z,1,1.0124229000066407,None,3.7432857890132496,869.4760253999993,869.4913589999924,873.2234279999975,873.2073734000005,,,,,1234,001,2025-03-14_15h55.45.256,pleaseworkstroopcontrol,2024.2.4,59.96861242661847,2025-03-14 15h56.07.240309 -0700,
test,inconsistent,52,red,green,word,z,800,2000,183,6,3,z,1,1.2217868000007002,None,3,6,183,51,873.2234279999975,,,,,,,,,,,,,873.209793099988,873.2234279999975,873.2234279999975,873.423197199998,873.423197199998,874.4569400999899,z,1,1.2217868000007002,None,4.88115380284535,874.4572742000018,874.4727977000002,879.3383512,879.3219723999937,,,,,1234,001,2025-03-14_15h55.45.256,pleaseworkstroopcontrol,2024.2.4,59.96861242661847,2025-03-14 15h56.07.240309 -0700,
test,inconsistent,50,yellow,green,word,z,800,2000,184,7,3,z,1,1.8602268000104232,None,3,7,184,49,879.3383512,,,,,,,,,,,,,879.3246413000015,879.3383512,879.3383512,879.537831499998,879.537831499998,881.205337499996,z,1,1.8602268000104232,None,4.781792679099586,881.2056884999911,881.2207774999988,886.0024804999994,885.9866803999903,,,,,1234,001,2025-03-14_15h55.45.256,pleaseworkstroopcontrol,2024.2.4,59.96861242661847,2025-03-14 15h56.07.240309 -0700,
test,consistent,38,blue,blue,word,m,800,2000,185,8,3,m,1,1.1615770000062184,None,3,8,185,37,886.0024804999994,,,,,,,,,,,,,885.9895854999922,886.0024804999994,886.0024804999994,886.2023962999956,886.2023962999956,887.1702805999957,m,1,1.1615770000062184,None,2.094857491847349,887.1706152999977,887.1859067999903,889.2678281999979,889.251803399995,,,,,1234,001,2025-03-14_15h55.45.256,pleaseworkstroopcontrol,2024.2.4,59.96861242661847,2025-03-14 15h56.07.240309 -0700,
test,consistent,34,green,green,word,m,800,2000,186,9,3,m,1,0.7860818000044674,None,3,9,186,33,889.2678281999979,,,,,,,,,,,,,889.2563985000015,889.2678281999979,889.2678281999979,889.4518781999941,889.4518781999941,890.0689832999924,m,1,0.7860818000044674,None,4.363598390303427,890.0693971000001,890.0844634999958,894.4327338000003,894.4165680000006,,,,,1234,001,2025-03-14_15h55.45.256,pleaseworkstroopcontrol,2024.2.4,59.96861242661847,2025-03-14 15h56.07.240309 -0700,
test,consistent,1,red,red,word,m,800,2000,187,10,3,m,1,0.8151891000015894,None,3,10,187,0,894.4327338000003,,,,,,,,,,,,,894.4189570999879,894.4327338000003,894.4327338000003,894.615973299995,894.615973299995,895.2502989999921,m,1,0.8151891000015894,None,2.3712255070985755,895.2506466999912,895.2657352999959,897.6315485999949,897.6158131999982,,,,,1234,001,2025-03-14_15h55.45.256,pleaseworkstroopcontrol,2024.2.4,59.96861242661847,2025-03-14 15h56.07.240309 -0700,
test,consistent,41,green,green,word,m,800,2000,188,11,3,m,1,0.6694031999941217,None,3,11,188,40,897.6315485999949,,,,,,,,,,,,,897.6186174999893,897.6315485999949,897.6315485999949,897.8316185000003,897.8316185000003,898.3247713000019,m,1,0.6694031999941217,None,5.776218036512317,898.3252231999941,898.3313244999881,904.1131307999894,904.0975595999917,,,,,1234,001,2025-03-14_15h55.45.256,pleaseworkstroopcontrol,2024.2.4,59.96861242661847,2025-03-14 15h56.07.240309 -0700,
test,inconsistent,42,green,yellow,word,z,800,2000,189,12,3,z,1,1.1458043999882648,None,3,12,189,41,904.1131307999894,,,,,,,,,,,,,904.0984223999985,904.1131307999894,904.1131307999894,904.3124213999981,904.3124213999981,905.2637050999911,z,1,1.1458043999882648,None,3.42599104225269,905.2642253999948,905.2789756999991,908.6946412999969,908.6787191999902,,,,,1234,001,2025-03-14_15h55.45.256,pleaseworkstroopcontrol,2024.2.4,59.96861242661847,2025-03-14 15h56.07.240309 -0700,
test,inconsistent,56,green,red,word,z,800,2000,190,13,3,z,1,0.9662163000029977,None,3,13,190,55,908.6946412999969,,,,,,,,,,,,,908.6794090999902,908.6946412999969,908.6946412999969,908.8944788999943,908.8944788999943,909.6624467999936,z,1,0.9662163000029977,None,5.707403314974165,909.6629467999883,909.6776341999939,915.3754219999973,915.3591660999955,,,,,1234,001,2025-03-14_15h55.45.256,pleaseworkstroopcontrol,2024.2.4,59.96861242661847,2025-03-14 15h56.07.240309 -0700,
test,inconsistent,6,red,yellow,word,z,800,2000,191,14,3,z,1,0.8022845999948913,None,3,14,191,5,915.3754219999973,,,,,,,,,,,,,915.3622288999904,915.3754219999973,915.3754219999973,915.5593483999983,915.5593483999983,916.1928375999996,z,1,0.8022845999948913,None,5.024613052376303,916.1931690999918,916.2084411999967,921.2235684999905,921.2074017999985,,,,,1234,001,2025-03-14_15h55.45.256,pleaseworkstroopcontrol,2024.2.4,59.96861242661847,2025-03-14 15h56.07.240309 -0700,
test,inconsistent,27,green,red,word,z,800,2000,192,15,3,z,1,0.9456557999947108,None,3,15,192,26,921.2235684999905,,,,,,,,,,,,,921.2099676999933,921.2235684999905,921.2235684999905,921.4066893999989,921.4066893999989,922.1748204999894,z,1,0.9456557999947108,None,4.057549877360413,922.1752882000001,922.1898726999934,926.2386331999878,926.2224265999976,,,,,1234,001,2025-03-14_15h55.45.256,pleaseworkstroopcontrol,2024.2.4,59.96861242661847,2025-03-14 15h56.07.240309 -0700,
test,inconsistent,15,yellow,red,word,z,800,2000,193,16,3,z,1,0.742540100007318,None,3,16,193,14,926.2386331999878,,,,,,,,,,,,,926.2254908999894,926.2386331999878,926.2386331999878,926.4385230999906,926.4385230999906,926.990266199995,z,1,0.742540100007318,None,1.792156418100574,926.9912500999926,927.0048094999947,928.7876116999978,928.7718969999987,,,,,1234,001,2025-03-14_15h55.45.256,pleaseworkstroopcontrol,2024.2.4,59.96861242661847,2025-03-14 15h56.07.240309 -0700,
test,inconsistent,9,red,blue,word,z,800,2000,194,17,3,z,1,1.1074032000033185,None,3,17,194,8,928.7876116999978,,,,,,,,,,,,,928.774236199999,928.7876116999978,928.7876116999978,928.9874194000004,928.9874194000004,929.9046825999976,z,1,1.1074032000033185,None,1.96857131416631,929.9050352999911,929.9204118999914,931.8868140999984,931.8705244000012,,,,,1234,001,2025-03-14_15h55.45.256,pleaseworkstroopcontrol,2024.2.4,59.96861242661847,2025-03-14 15h56.07.240309 -0700,
test,consistent,46,yellow,yellow,word,m,800,2000,195,18,3,m,1,0.9015360000048531,None,3,18,195,45,931.8868140999984,,,,,,,,,,,,,931.873680699995,931.8868140999984,931.8868140999984,932.0698627999955,932.0698627999955,932.8047656999988,m,1,0.9015360000048531,None,2.7238212624145763,932.8051850999909,932.8195975999988,935.5354106000013,935.5195201999886,,,,,1234,001,2025-03-14_15h55.45.256,pleaseworkstroopcontrol,2024.2.4,59.96861242661847,2025-03-14 15h56.07.240309 -0700,
test,inconsistent,5,orange,blue,word,z,800,2000,196,19,3,z,1,1.0544096999947214,None,3,19,196,4,935.5354106000013,,,,,,,,,,,,,935.522533299998,935.5354106000013,935.5354106000013,935.7352011999901,935.7352011999901,936.6027627000003,z,1,1.0544096999947214,None,4.89612168509327,936.6031215999974,936.6186531999992,941.4999719999905,941.4840637000016,,,,,1234,001,2025-03-14_15h55.45.256,pleaseworkstroopcontrol,2024.2.4,59.96861242661847,2025-03-14 15h56.07.240309 -0700,
test,inconsistent,53,red,yellow,word,z,800,2000,197,20,3,z,1,1.125268000003416,None,3,20,197,52,941.4999719999905,,,,,,,,,,,,,941.4868004000018,941.4999719999905,941.4999719999905,941.699798799993,941.699798799993,942.6338607999933,z,1,1.125268000003416,None,1.6611978785706119,942.6342104999931,942.6493628999888,944.2990816999954,944.2830259999901,,,,,1234,001,2025-03-14_15h55.45.256,pleaseworkstroopcontrol,2024.2.4,59.96861242661847,2025-03-14 15h56.07.240309 -0700,
test,consistent,36,red,red,word,m,800,2000,198,21,3,m,1,0.8706335999886505,None,3,21,198,35,944.2990816999954,,,,,,,,,,,,,944.2836927999888,944.2990816999954,944.2990816999954,944.4822266999981,944.4822266999981,945.1829576000018,m,1,0.8706335999886505,None,2.757468796845836,945.1833098999923,945.1987211999949,947.9476675999904,947.931868899992,,,,,1234,001,2025-03-14_15h55.45.256,pleaseworkstroopcontrol,2024.2.4,59.96861242661847,2025-03-14 15h56.07.240309 -0700,
test,inconsistent,11,green,red,word,z,800,2000,199,22,3,z,1,1.204104600008577,None,3,22,199,10,947.9476675999904,,,,,,,,,,,,,947.9358385999949,947.9476675999904,947.9476675999904,948.1475088000007,948.1475088000007,949.1647776999889,z,1,1.204104600008577,None,4.280668579266482,949.1652065999951,949.1809169999906,953.4456955999922,953.429870299995,,,,,1234,001,2025-03-14_15h55.45.256,pleaseworkstroopcontrol,2024.2.4,59.96861242661847,2025-03-14 15h56.07.240309 -0700,
test,inconsistent,31,yellow,red,word,z,800,2000,200,23,3,z,1,0.7105519000033382,None,3,23,200,30,953.4456955999922,,,,,,,,,,,,,953.434915699996,953.4456955999922,953.4456955999922,953.6457384999958,953.6457384999958,954.1632488999894,z,1,0.7105519000033382,None,5.838437409863958,954.1635802999954,954.1788169999927,960.0103287999955,959.9941779999936,,,,,1234,001,2025-03-14_15h55.45.256,pleaseworkstroopcontrol,2024.2.4,59.96861242661847,2025-03-14 15h56.07.240309 -0700,
test,inconsistent,48,yellow,red,word,z,800,2000,201,24,3,z,1,0.958352499990724,None,3,24,201,47,960.0103287999955,,,,,,,,,,,,,959.9950009999884,960.0103287999955,960.0103287999955,960.1936704999971,960.1936704999971,960.9775488000014,z,1,0.958352499990724,None,3.4428004850052005,960.9778946000006,960.9930572000012,964.4252630999981,964.4094697999972,,,,,1234,001,2025-03-14_15h55.45.256,pleaseworkstroopcontrol,2024.2.4,59.96861242661847,2025-03-14 15h56.07.240309 -0700,
test,consistent,40,yellow,yellow,word,m,800,2000,202,25,3,m,1,0.8465001000004122,None,3,25,202,39,964.4252630999981,,,,,,,,,,,,,964.410121199995,964.4252630999981,964.4252630999981,964.6252302999928,964.6252302999928,965.2762788999971,m,1,0.8465001000004122,None,1.284179732987912,965.2766906999896,965.2923582999938,966.5746159999981,966.5583437000023,,,,,1234,001,2025-03-14_15h55.45.256,pleaseworkstroopcontrol,2024.2.4,59.96861242661847,2025-03-14 15h56.07.240309 -0700,
test,consistent,51,red,red,word,m,800,2000,203,26,3,m,1,0.7520342000061646,None,3,26,203,50,966.5746159999981,,,,,,,,,,,,,966.5613850999944,966.5746159999981,966.5746159999981,966.7578565000003,966.7578565000003,967.3419760999968,m,1,0.7520342000061646,None,2.650393549996701,967.3423662999994,967.3576581999951,970.0072335000004,969.9904391000018,,,,,1234,001,2025-03-14_15h55.45.256,pleaseworkstroopcontrol,2024.2.4,59.96861242661847,2025-03-14 15h56.07.240309 -0700,
test,consistent,49,yellow,yellow,word,m,800,2000,204,27,3,m,1,0.6665369999973336,None,3,27,204,48,970.0072335000004,,,,,,,,,,,,,969.993469699999,970.0072335000004,970.0072335000004,970.1900529999984,970.1900529999984,970.6913988000015,m,1,0.6665369999973336,None,3.981723653001562,970.6918420000002,970.706485799994,974.6886375999893,974.6724595999985,,,,,1234,001,2025-03-14_15h55.45.256,pleaseworkstroopcontrol,2024.2.4,59.96861242661847,2025-03-14 15h56.07.240309 -0700,
test,consistent,45,red,red,word,m,800,2000,205,28,3,m,1,0.9155224999994971,None,3,28,205,44,974.6886375999893,,,,,,,,,,,,,974.6753098999907,974.6886375999893,974.6886375999893,974.871756099994,974.871756099994,975.6060586999956,m,1,0.9155224999994971,None,1.0154330810189385,975.6064299999998,975.6216487999918,976.621075099989,976.6051177999907,,,,,1234,001,2025-03-14_15h55.45.256,pleaseworkstroopcontrol,2024.2.4,59.96861242661847,2025-03-14 15h56.07.240309 -0700,
test,inconsistent,19,green,red,word,z,800,2000,206,29,3,z,1,0.8939628999942215,None,3,29,206,18,976.621075099989,,,,,,,,,,,,,976.6078602999914,976.621075099989,976.621075099989,976.8043501999928,976.8043501999928,977.5221756999963,z,1,0.8939628999942215,None,4.106413927009335,977.5225124999997,977.5378618999966,981.6362294999999,981.6199344999914,,,,,1234,001,2025-03-14_15h55.45.256,pleaseworkstroopcontrol,2024.2.4,59.96861242661847,2025-03-14 15h56.07.240309 -0700,
test,inconsistent,2,yellow,green,word,z,800,2000,207,30,3,z,1,0.9555710999993607,None,3,30,207,1,981.6362294999999,,,,,,,,,,,,,981.6224805999955,981.6362294999999,981.6362294999999,981.8194573999936,981.8194573999936,982.6035636000015,z,1,0.9555710999993607,None,3.3055654705274153,982.6039205999987,982.6190724999906,985.9192471999995,985.9026023999904,,,,,1234,001,2025-03-14_15h55.45.256,pleaseworkstroopcontrol,2024.2.4,59.96861242661847,2025-03-14 15h56.07.240309 -0700,
